PacketType,PayloadLen,DeviceID,Timestamp,PacketID,AccelX,AccelY,AccelZ,GyroX,GyroY,GyroZ,MagX,MagY,MagZ,Flags,Battery,CRC
2,24,2,3786,1,0.0,0.0,0.0,0.0,0.0,0.0,0.0,0.0,0.0,3,0,81
2,24,1,3787,1,0.0,0.0,0.0,0.0,0.0,0.0,0.0,0.0,0.0,3,0,154
2,24,3,3788,1,0.0,0.0,0.0,0.0,0.0,0.0,0.0,0.0,0.0,3,0,235
2,24,2,3791,2,0.0,0.0,0.0,0.0,0.0,0.0,0.0,0.0,0.0,3,0,103
2,24,1,3792,2,0.0,0.0,0.0,0.0,0.0,0.0,0.0,0.0,0.0,3,0,99
2,24,3,3794,2,0.0,0.0,0.0,0.0,0.0,0.0,0.0,0.0,0.0,3,0,78
2,24,1,3798,3,0.0,0.0,0.0,0.0,0.0,0.0,0.0,0.0,0.0,3,0,208
2,24,3,3799,3,0.0,0.0,0.0,0.0,0.0,0.0,0.0,0.0,0.0,3,0,52
2,24,2,3800,3,0.0,0.0,0.0,0.0,0.0,0.0,0.0,0.0,0.0,3,0,255
2,24,1,3803,4,0.0,0.0,0.0,0.0,0.0,0.0,0.0,0.0,0.0,3,0,181
2,24,2,3805,4,0.0,0.0,0.0,0.0,0.0,0.0,0.0,0.0,0.0,3,0,81
2,24,3,3806,4,0.0,0.0,0.0,0.0,0.0,0.0,0.0,0.0,0.0,3,0,183
2,24,1,3809,5,0.0,0.0,0.0,0.0,0.0,0.0,0.0,0.0,0.0,3,0,159
2,24,2,3810,5,0.0,0.0,0.0,0.0,0.0,0.0,0.0,0.0,0.0,3,0,39
2,24,3,3812,5,0.0,0.0,0.0,0.0,0.0,0.0,0.0,0.0,0.0,3,0,157
2,24,2,3815,6,0.0,0.0,0.0,0.0,0.0,0.0,0.0,0.0,0.0,3,0,17
2,24,1,3816,6,0.0,0.0,0.0,0.0,0.0,0.0,0.0,0.0,0.0,3,0,132
2,24,3,3817,6,0.0,0.0,0.0,0.0,0.0,0.0,0.0,0.0,0.0,3,0,96
2,24,1,3821,7,0.0,0.0,0.0,0.0,0.0,0.0,0.0,0.0,0.0,3,0,254
2,24,3,3822,7,0.0,0.0,0.0,0.0,0.0,0.0,0.0,0.0,0.0,3,0,105
2,24,2,3823,7,0.0,0.0,0.0,0.0,0.0,0.0,0.0,0.0,0.0,3,0,252
2,24,1,3826,8,0.0,0.0,0.0,0.0,0.0,0.0,0.0,0.0,0.0,3,0,78
2,24,3,3827,8,0.0,0.0,0.0,0.0,0.0,0.0,0.0,0.0,0.0,3,0,170
2,24,2,3828,8,0.0,0.0,0.0,0.0,0.0,0.0,0.0,0.0,0.0,3,0,170
2,24,1,3832,9,0.0,0.0,0.0,0.0,0.0,0.0,0.0,0.0,0.0,3,0,208
2,24,2,3833,9,0.0,0.0,0.0,0.0,0.0,0.0,0.0,0.0,0.0,3,0,27
2,24,3,3835,9,0.0,0.0,0.0,0.0,0.0,0.0,0.0,0.0,0.0,3,0,71
2,24,1,3843,10,0.0,0.0,0.0,0.0,0.0,0.0,0.0,0.0,0.0,3,0,236
2,24,2,3845,10,0.0,0.0,0.0,0.0,0.0,0.0,0.0,0.0,0.0,3,0,8
2,24,3,3846,10,0.0,0.0,0.0,0.0,0.0,0.0,0.0,0.0,0.0,3,0,238
2,24,1,3849,11,0.0,0.0,0.0,0.0,0.0,0.0,0.0,0.0,0.0,3,0,114
2,24,3,3850,11,0.0,0.0,0.0,0.0,0.0,0.0,0.0,0.0,0.0,3,0,229
2,24,2,3851,11,0.0,0.0,0.0,0.0,0.0,0.0,0.0,0.0,0.0,3,0,112
2,24,1,3854,12,0.0,0.0,0.0,0.0,0.0,0.0,0.0,0.0,0.0,3,0,175
2,24,3,3856,12,0.0,0.0,0.0,0.0,0.0,0.0,0.0,0.0,0.0,3,0,62
2,24,2,3857,12,0.0,0.0,0.0,0.0,0.0,0.0,0.0,0.0,0.0,3,0,171
2,24,1,3861,13,0.0,0.0,0.0,0.0,0.0,0.0,0.0,0.0,0.0,3,0,26
2,24,3,3862,13,0.0,0.0,0.0,0.0,0.0,0.0,0.0,0.0,0.0,3,0,141
2,24,2,3863,13,0.0,0.0,0.0,0.0,0.0,0.0,0.0,0.0,0.0,3,0,24
2,24,3,3867,14,0.0,0.0,0.0,0.0,0.0,0.0,0.0,0.0,0.0,3,0,112
2,24,1,3868,14,0.0,0.0,0.0,0.0,0.0,0.0,0.0,0.0,0.0,3,0,1
2,24,2,3870,14,0.0,0.0,0.0,0.0,0.0,0.0,0.0,0.0,0.0,3,0,3
2,24,1,3874,15,0.0,0.0,0.0,0.0,0.0,0.0,0.0,0.0,0.0,3,0,205
2,24,3,3875,15,0.0,0.0,0.0,0.0,0.0,0.0,0.0,0.0,0.0,3,0,41
2,24,2,3876,15,0.0,0.0,0.0,0.0,0.0,0.0,0.0,0.0,0.0,3,0,41
2,24,1,3880,16,0.0,0.0,0.0,0.0,0.0,0.0,0.0,0.0,0.0,3,0,222
2,24,3,3882,16,0.0,0.0,0.0,0.0,0.0,0.0,0.0,0.0,0.0,3,0,243
2,24,2,3883,16,0.0,0.0,0.0,0.0,0.0,0.0,0.0,0.0,0.0,3,0,102
2,24,1,3887,17,0.0,0.0,0.0,0.0,0.0,0.0,0.0,0.0,0.0,3,0,215
2,24,2,3888,17,0.0,0.0,0.0,0.0,0.0,0.0,0.0,0.0,0.0,3,0,211
2,24,3,3890,17,0.0,0.0,0.0,0.0,0.0,0.0,0.0,0.0,0.0,3,0,143
2,24,3,3894,18,0.0,0.0,0.0,0.0,0.0,0.0,0.0,0.0,0.0,3,0,3
2,24,1,3895,18,0.0,0.0,0.0,0.0,0.0,0.0,0.0,0.0,0.0,3,0,231
2,24,2,3896,18,0.0,0.0,0.0,0.0,0.0,0.0,0.0,0.0,0.0,3,0,114
2,24,1,3900,19,0.0,0.0,0.0,0.0,0.0,0.0,0.0,0.0,0.0,3,0,195
2,24,2,3901,19,0.0,0.0,0.0,0.0,0.0,0.0,0.0,0.0,0.0,3,0,8
2,24,3,3902,19,0.0,0.0,0.0,0.0,0.0,0.0,0.0,0.0,0.0,3,0,238
2,24,2,3906,20,0.0,0.0,0.0,0.0,0.0,0.0,0.0,0.0,0.0,3,0,224
2,24,1,3907,20,0.0,0.0,0.0,0.0,0.0,0.0,0.0,0.0,0.0,3,0,43
2,24,3,3908,20,0.0,0.0,0.0,0.0,0.0,0.0,0.0,0.0,0.0,3,0,90
2,24,2,3911,21,0.0,0.0,0.0,0.0,0.0,0.0,0.0,0.0,0.0,3,0,154
2,24,1,3912,21,0.0,0.0,0.0,0.0,0.0,0.0,0.0,0.0,0.0,3,0,15
2,24,3,3913,21,0.0,0.0,0.0,0.0,0.0,0.0,0.0,0.0,0.0,3,0,235
2,24,1,3916,22,0.0,0.0,0.0,0.0,0.0,0.0,0.0,0.0,0.0,3,0,131
2,24,3,3917,22,0.0,0.0,0.0,0.0,0.0,0.0,0.0,0.0,0.0,3,0,103
2,24,2,3919,22,0.0,0.0,0.0,0.0,0.0,0.0,0.0,0.0,0.0,3,0,59
2,24,1,3925,23,0.0,0.0,0.0,0.0,0.0,0.0,0.0,0.0,0.0,3,0,69
2,24,3,3926,23,0.0,0.0,0.0,0.0,0.0,0.0,0.0,0.0,0.0,3,0,210
2,24,2,3927,23,0.0,0.0,0.0,0.0,0.0,0.0,0.0,0.0,0.0,3,0,71
2,24,1,3931,24,0.0,0.0,0.0,0.0,0.0,0.0,0.0,0.0,0.0,3,0,222
2,24,2,3932,24,0.0,0.0,0.0,0.0,0.0,0.0,0.0,0.0,0.0,3,0,128
2,24,3,3933,24,0.0,0.0,0.0,0.0,0.0,0.0,0.0,0.0,0.0,3,0,21
2,24,1,3936,25,0.0,0.0,0.0,0.0,0.0,0.0,0.0,0.0,0.0,3,0,78
2,24,3,3937,25,0.0,0.0,0.0,0.0,0.0,0.0,0.0,0.0,0.0,3,0,170
2,24,2,3938,25,0.0,0.0,0.0,0.0,0.0,0.0,0.0,0.0,0.0,3,0,76
2,24,3,3942,26,0.0,0.0,0.0,0.0,0.0,0.0,0.0,0.0,0.0,3,0,239
2,24,1,3943,26,0.0,0.0,0.0,0.0,0.0,0.0,0.0,0.0,0.0,3,0,11
2,24,2,3944,26,0.0,0.0,0.0,0.0,0.0,0.0,0.0,0.0,0.0,3,0,158
2,24,1,3948,27,0.0,0.0,0.0,0.0,0.0,0.0,0.0,0.0,0.0,3,0,47
2,24,2,3950,27,0.0,0.0,0.0,0.0,0.0,0.0,0.0,0.0,0.0,3,0,45
2,24,3,3951,27,0.0,0.0,0.0,0.0,0.0,0.0,0.0,0.0,0.0,3,0,184
2,24,1,3954,28,0.0,0.0,0.0,0.0,0.0,0.0,0.0,0.0,0.0,3,0,18
2,24,2,3955,28,0.0,0.0,0.0,0.0,0.0,0.0,0.0,0.0,0.0,3,0,217
2,24,3,3956,28,0.0,0.0,0.0,0.0,0.0,0.0,0.0,0.0,0.0,3,0,217
2,24,1,3960,29,0.0,0.0,0.0,0.0,0.0,0.0,0.0,0.0,0.0,3,0,140
2,24,3,3961,29,0.0,0.0,0.0,0.0,0.0,0.0,0.0,0.0,0.0,3,0,104
2,24,2,3962,29,0.0,0.0,0.0,0.0,0.0,0.0,0.0,0.0,0.0,3,0,142
2,24,3,3965,30,0.0,0.0,0.0,0.0,0.0,0.0,0.0,0.0,0.0,3,0,228
2,24,2,3966,30,0.0,0.0,0.0,0.0,0.0,0.0,0.0,0.0,0.0,3,0,2
2,24,1,3968,30,0.0,0.0,0.0,0.0,0.0,0.0,0.0,0.0,0.0,3,0,71
2,24,3,3971,31,0.0,0.0,0.0,0.0,0.0,0.0,0.0,0.0,0.0,3,0,246
2,24,1,3972,31,0.0,0.0,0.0,0.0,0.0,0.0,0.0,0.0,0.0,3,0,135
2,24,2,3974,31,0.0,0.0,0.0,0.0,0.0,0.0,0.0,0.0,0.0,3,0,133
2,24,1,3977,32,0.0,0.0,0.0,0.0,0.0,0.0,0.0,0.0,0.0,3,0,103
2,24,2,3978,32,0.0,0.0,0.0,0.0,0.0,0.0,0.0,0.0,0.0,3,0,223
2,24,3,3979,32,0.0,0.0,0.0,0.0,0.0,0.0,0.0,0.0,0.0,3,0,74
2,24,3,3983,33,0.0,0.0,0.0,0.0,0.0,0.0,0.0,0.0,0.0,3,0,138
2,24,1,3989,33,0.0,0.0,0.0,0.0,0.0,0.0,0.0,0.0,0.0,3,0,253
2,24,2,3990,33,0.0,0.0,0.0,0.0,0.0,0.0,0.0,0.0,0.0,3,0,69
2,24,1,3994,34,0.0,0.0,0.0,0.0,0.0,0.0,0.0,0.0,0.0,3,0,115
2,24,2,3995,34,0.0,0.0,0.0,0.0,0.0,0.0,0.0,0.0,0.0,3,0,184
2,24,3,3997,34,0.0,0.0,0.0,0.0,0.0,0.0,0.0,0.0,0.0,3,0,2
2,24,3,4000,35,0.0,0.0,0.0,0.0,0.0,0.0,0.0,0.0,0.0,3,0,7
2,24,1,4001,35,0.0,0.0,0.0,0.0,0.0,0.0,0.0,0.0,0.0,3,0,227
2,24,2,4002,35,0.0,0.0,0.0,0.0,0.0,0.0,0.0,0.0,0.0,3,0,91
2,24,3,4005,36,0.0,0.0,0.0,0.0,0.0,0.0,0.0,0.0,0.0,3,0,169
2,24,2,4007,36,0.0,0.0,0.0,0.0,0.0,0.0,0.0,0.0,0.0,3,0,245
2,24,1,4009,36,0.0,0.0,0.0,0.0,0.0,0.0,0.0,0.0,0.0,3,0,218
2,24,1,4012,37,0.0,0.0,0.0,0.0,0.0,0.0,0.0,0.0,0.0,3,0,160
2,24,3,4013,37,0.0,0.0,0.0,0.0,0.0,0.0,0.0,0.0,0.0,3,0,68
2,24,2,4014,37,0.0,0.0,0.0,0.0,0.0,0.0,0.0,0.0,0.0,3,0,162
2,24,1,4017,38,0.0,0.0,0.0,0.0,0.0,0.0,0.0,0.0,0.0,3,0,204
2,24,3,4018,38,0.0,0.0,0.0,0.0,0.0,0.0,0.0,0.0,0.0,3,0,91
2,24,2,4019,38,0.0,0.0,0.0,0.0,0.0,0.0,0.0,0.0,0.0,3,0,206
2,24,1,4023,39,0.0,0.0,0.0,0.0,0.0,0.0,0.0,0.0,0.0,3,0,127
2,24,3,4024,39,0.0,0.0,0.0,0.0,0.0,0.0,0.0,0.0,0.0,3,0,197
2,24,2,4025,39,0.0,0.0,0.0,0.0,0.0,0.0,0.0,0.0,0.0,3,0,80
2,24,3,4029,40,0.0,0.0,0.0,0.0,0.0,0.0,0.0,0.0,0.0,3,0,92
2,24,1,4030,40,0.0,0.0,0.0,0.0,0.0,0.0,0.0,0.0,0.0,3,0,203
2,24,2,4031,40,0.0,0.0,0.0,0.0,0.0,0.0,0.0,0.0,0.0,3,0,0
2,24,1,4035,41,0.0,0.0,0.0,0.0,0.0,0.0,0.0,0.0,0.0,3,0,132
2,24,3,4036,41,0.0,0.0,0.0,0.0,0.0,0.0,0.0,0.0,0.0,3,0,245
2,24,2,4037,41,0.0,0.0,0.0,0.0,0.0,0.0,0.0,0.0,0.0,3,0,96
2,24,1,4040,42,0.0,0.0,0.0,0.0,0.0,0.0,0.0,0.0,0.0,3,0,236
2,24,2,4041,42,0.0,0.0,0.0,0.0,0.0,0.0,0.0,0.0,0.0,3,0,39
2,24,3,4042,42,0.0,0.0,0.0,0.0,0.0,0.0,0.0,0.0,0.0,3,0,193
2,24,1,4047,43,0.0,0.0,0.0,0.0,0.0,0.0,0.0,0.0,0.0,3,0,229
2,24,3,4048,43,0.0,0.0,0.0,0.0,0.0,0.0,0.0,0.0,0.0,3,0,206
2,24,2,4049,43,0.0,0.0,0.0,0.0,0.0,0.0,0.0,0.0,0.0,3,0,91
2,24,3,4052,44,0.0,0.0,0.0,0.0,0.0,0.0,0.0,0.0,0.0,3,0,218
2,24,1,4053,44,0.0,0.0,0.0,0.0,0.0,0.0,0.0,0.0,0.0,3,0,62
2,24,2,4054,44,0.0,0.0,0.0,0.0,0.0,0.0,0.0,0.0,0.0,3,0,134
2,24,3,4058,45,0.0,0.0,0.0,0.0,0.0,0.0,0.0,0.0,0.0,3,0,162
2,24,1,4059,45,0.0,0.0,0.0,0.0,0.0,0.0,0.0,0.0,0.0,3,0,70
2,24,2,4061,45,0.0,0.0,0.0,0.0,0.0,0.0,0.0,0.0,0.0,3,0,162
2,24,2,4065,46,0.0,0.0,0.0,0.0,0.0,0.0,0.0,0.0,0.0,3,0,81
2,24,1,4066,46,0.0,0.0,0.0,0.0,0.0,0.0,0.0,0.0,0.0,3,0,233
2,24,3,4067,46,0.0,0.0,0.0,0.0,0.0,0.0,0.0,0.0,0.0,3,0,13
2,24,3,4072,47,0.0,0.0,0.0,0.0,0.0,0.0,0.0,0.0,0.0,3,0,41
2,24,2,4073,47,0.0,0.0,0.0,0.0,0.0,0.0,0.0,0.0,0.0,3,0,188
2,24,1,4074,47,0.0,0.0,0.0,0.0,0.0,0.0,0.0,0.0,0.0,3,0,4
2,24,3,4077,48,0.0,0.0,0.0,0.0,0.0,0.0,0.0,0.0,0.0,3,0,222
2,24,1,4078,48,0.0,0.0,0.0,0.0,0.0,0.0,0.0,0.0,0.0,3,0,73
2,24,2,4079,48,0.0,0.0,0.0,0.0,0.0,0.0,0.0,0.0,0.0,3,0,130
2,24,2,4083,49,0.0,0.0,0.0,0.0,0.0,0.0,0.0,0.0,0.0,3,0,24
2,24,1,4085,49,0.0,0.0,0.0,0.0,0.0,0.0,0.0,0.0,0.0,3,0,252
2,24,3,4087,49,0.0,0.0,0.0,0.0,0.0,0.0,0.0,0.0,0.0,3,0,209
2,24,1,4091,50,0.0,0.0,0.0,0.0,0.0,0.0,0.0,0.0,0.0,3,0,200
2,24,3,4092,50,0.0,0.0,0.0,0.0,0.0,0.0,0.0,0.0,0.0,3,0,185
2,24,2,4094,50,0.0,0.0,0.0,0.0,0.0,0.0,0.0,0.0,0.0,3,0,229
2,24,3,4097,51,0.0,0.0,0.0,0.0,0.0,0.0,0.0,0.0,0.0,3,0,198
2,24,2,4098,51,0.0,0.0,0.0,0.0,0.0,0.0,0.0,0.0,0.0,3,0,32
2,24,1,4099,51,0.0,0.0,0.0,0.0,0.0,0.0,0.0,0.0,0.0,3,0,235
2,24,3,4102,52,0.0,0.0,0.0,0.0,0.0,0.0,0.0,0.0,0.0,3,0,27
2,24,1,4103,52,0.0,0.0,0.0,0.0,0.0,0.0,0.0,0.0,0.0,3,0,255
2,24,2,4104,52,0.0,0.0,0.0,0.0,0.0,0.0,0.0,0.0,0.0,3,0,106
2,24,3,4107,53,0.0,0.0,0.0,0.0,0.0,0.0,0.0,0.0,0.0,3,0,170
2,24,1,4108,53,0.0,0.0,0.0,0.0,0.0,0.0,0.0,0.0,0.0,3,0,219
2,24,2,4109,53,0.0,0.0,0.0,0.0,0.0,0.0,0.0,0.0,0.0,3,0,16
2,24,1,4113,54,0.0,0.0,0.0,0.0,0.0,0.0,0.0,0.0,0.0,3,0,183
2,24,2,4114,54,0.0,0.0,0.0,0.0,0.0,0.0,0.0,0.0,0.0,3,0,15
2,24,3,4115,54,0.0,0.0,0.0,0.0,0.0,0.0,0.0,0.0,0.0,3,0,154
2,24,3,4118,55,0.0,0.0,0.0,0.0,0.0,0.0,0.0,0.0,0.0,3,0,224
2,24,1,4119,55,0.0,0.0,0.0,0.0,0.0,0.0,0.0,0.0,0.0,3,0,4
2,24,2,4120,55,0.0,0.0,0.0,0.0,0.0,0.0,0.0,0.0,0.0,3,0,145
2,24,3,4124,56,0.0,0.0,0.0,0.0,0.0,0.0,0.0,0.0,0.0,3,0,157
2,24,1,4125,56,0.0,0.0,0.0,0.0,0.0,0.0,0.0,0.0,0.0,3,0,121
2,24,2,4128,56,0.0,0.0,0.0,0.0,0.0,0.0,0.0,0.0,0.0,3,0,43
2,24,3,4131,57,0.0,0.0,0.0,0.0,0.0,0.0,0.0,0.0,0.0,3,0,235
2,24,1,4132,57,0.0,0.0,0.0,0.0,0.0,0.0,0.0,0.0,0.0,3,0,154
2,24,2,4133,57,0.0,0.0,0.0,0.0,0.0,0.0,0.0,0.0,0.0,3,0,81
2,24,3,4137,58,0.0,0.0,0.0,0.0,0.0,0.0,0.0,0.0,0.0,3,0,57
2,24,1,4138,58,0.0,0.0,0.0,0.0,0.0,0.0,0.0,0.0,0.0,3,0,174
2,24,2,4140,58,0.0,0.0,0.0,0.0,0.0,0.0,0.0,0.0,0.0,3,0,74
2,24,3,4143,59,0.0,0.0,0.0,0.0,0.0,0.0,0.0,0.0,0.0,3,0,138
2,24,1,4144,59,0.0,0.0,0.0,0.0,0.0,0.0,0.0,0.0,0.0,3,0,161
2,24,2,4145,59,0.0,0.0,0.0,0.0,0.0,0.0,0.0,0.0,0.0,3,0,106
2,24,1,4150,60,0.0,0.0,0.0,0.0,0.0,0.0,0.0,0.0,0.0,3,0,198
2,24,2,4151,60,0.0,0.0,0.0,0.0,0.0,0.0,0.0,0.0,0.0,3,0,13
2,24,3,4152,60,0.0,0.0,0.0,0.0,0.0,0.0,0.0,0.0,0.0,3,0,198
2,24,1,4156,61,0.0,0.0,0.0,0.0,0.0,0.0,0.0,0.0,0.0,3,0,88
2,24,3,4157,61,0.0,0.0,0.0,0.0,0.0,0.0,0.0,0.0,0.0,3,0,188
2,24,2,4158,61,0.0,0.0,0.0,0.0,0.0,0.0,0.0,0.0,0.0,3,0,90
2,24,2,4163,62,0.0,0.0,0.0,0.0,0.0,0.0,0.0,0.0,0.0,3,0,89
2,24,1,4164,62,0.0,0.0,0.0,0.0,0.0,0.0,0.0,0.0,0.0,3,0,7
2,24,3,4165,62,0.0,0.0,0.0,0.0,0.0,0.0,0.0,0.0,0.0,3,0,227
2,24,1,4168,63,0.0,0.0,0.0,0.0,0.0,0.0,0.0,0.0,0.0,3,0,12
2,24,2,4169,63,0.0,0.0,0.0,0.0,0.0,0.0,0.0,0.0,0.0,3,0,199
2,24,3,4170,63,0.0,0.0,0.0,0.0,0.0,0.0,0.0,0.0,0.0,3,0,33
2,24,1,4174,64,0.0,0.0,0.0,0.0,0.0,0.0,0.0,0.0,0.0,3,0,81
2,24,2,4175,64,0.0,0.0,0.0,0.0,0.0,0.0,0.0,0.0,0.0,3,0,154
2,24,3,4177,64,0.0,0.0,0.0,0.0,0.0,0.0,0.0,0.0,0.0,3,0,122
2,24,1,4180,65,0.0,0.0,0.0,0.0,0.0,0.0,0.0,0.0,0.0,3,0,94
2,24,3,4181,65,0.0,0.0,0.0,0.0,0.0,0.0,0.0,0.0,0.0,3,0,186
2,24,2,4182,65,0.0,0.0,0.0,0.0,0.0,0.0,0.0,0.0,0.0,3,0,92
2,24,1,4186,66,0.0,0.0,0.0,0.0,0.0,0.0,0.0,0.0,0.0,3,0,106
2,24,3,4187,66,0.0,0.0,0.0,0.0,0.0,0.0,0.0,0.0,0.0,3,0,142
2,24,2,4189,66,0.0,0.0,0.0,0.0,0.0,0.0,0.0,0.0,0.0,3,0,52
2,24,3,4192,67,0.0,0.0,0.0,0.0,0.0,0.0,0.0,0.0,0.0,3,0,30
2,24,1,4193,67,0.0,0.0,0.0,0.0,0.0,0.0,0.0,0.0,0.0,3,0,250
2,24,2,4194,67,0.0,0.0,0.0,0.0,0.0,0.0,0.0,0.0,0.0,3,0,66
2,24,3,4198,68,0.0,0.0,0.0,0.0,0.0,0.0,0.0,0.0,0.0,3,0,121
2,24,2,4199,68,0.0,0.0,0.0,0.0,0.0,0.0,0.0,0.0,0.0,3,0,236
2,24,1,4200,68,0.0,0.0,0.0,0.0,0.0,0.0,0.0,0.0,0.0,3,0,121
2,24,2,4204,69,0.0,0.0,0.0,0.0,0.0,0.0,0.0,0.0,0.0,3,0,200
2,24,1,4205,69,0.0,0.0,0.0,0.0,0.0,0.0,0.0,0.0,0.0,3,0,3
2,24,3,4206,69,0.0,0.0,0.0,0.0,0.0,0.0,0.0,0.0,0.0,3,0,148
2,24,2,4209,70,0.0,0.0,0.0,0.0,0.0,0.0,0.0,0.0,0.0,3,0,164
2,24,1,4210,70,0.0,0.0,0.0,0.0,0.0,0.0,0.0,0.0,0.0,3,0,28
2,24,3,4211,70,0.0,0.0,0.0,0.0,0.0,0.0,0.0,0.0,0.0,3,0,248
2,24,1,4215,71,0.0,0.0,0.0,0.0,0.0,0.0,0.0,0.0,0.0,3,0,102
2,24,3,4216,71,0.0,0.0,0.0,0.0,0.0,0.0,0.0,0.0,0.0,3,0,220
2,24,2,4217,71,0.0,0.0,0.0,0.0,0.0,0.0,0.0,0.0,0.0,3,0,73
2,24,3,4225,72,0.0,0.0,0.0,0.0,0.0,0.0,0.0,0.0,0.0,3,0,2
2,24,1,4226,72,0.0,0.0,0.0,0.0,0.0,0.0,0.0,0.0,0.0,3,0,149
2,24,2,4227,72,0.0,0.0,0.0,0.0,0.0,0.0,0.0,0.0,0.0,3,0,94
2,24,3,4230,73,0.0,0.0,0.0,0.0,0.0,0.0,0.0,0.0,0.0,3,0,11
2,24,2,4231,73,0.0,0.0,0.0,0.0,0.0,0.0,0.0,0.0,0.0,3,0,158
2,24,1,4232,73,0.0,0.0,0.0,0.0,0.0,0.0,0.0,0.0,0.0,3,0,11
2,24,3,4237,74,0.0,0.0,0.0,0.0,0.0,0.0,0.0,0.0,0.0,3,0,99
2,24,1,4238,74,0.0,0.0,0.0,0.0,0.0,0.0,0.0,0.0,0.0,3,0,244
2,24,2,4240,74,0.0,0.0,0.0,0.0,0.0,0.0,0.0,0.0,0.0,3,0,74
2,24,1,4243,75,0.0,0.0,0.0,0.0,0.0,0.0,0.0,0.0,0.0,3,0,212
2,24,3,4244,75,0.0,0.0,0.0,0.0,0.0,0.0,0.0,0.0,0.0,3,0,165
2,24,2,4245,75,0.0,0.0,0.0,0.0,0.0,0.0,0.0,0.0,0.0,3,0,48
2,24,3,4250,76,0.0,0.0,0.0,0.0,0.0,0.0,0.0,0.0,0.0,3,0,9
2,24,1,4251,76,0.0,0.0,0.0,0.0,0.0,0.0,0.0,0.0,0.0,3,0,237
2,24,2,4252,76,0.0,0.0,0.0,0.0,0.0,0.0,0.0,0.0,0.0,3,0,179
2,24,1,4256,77,0.0,0.0,0.0,0.0,0.0,0.0,0.0,0.0,0.0,3,0,125
2,24,3,4257,77,0.0,0.0,0.0,0.0,0.0,0.0,0.0,0.0,0.0,3,0,153
2,24,2,4258,77,0.0,0.0,0.0,0.0,0.0,0.0,0.0,0.0,0.0,3,0,127
2,24,1,4262,78,0.0,0.0,0.0,0.0,0.0,0.0,0.0,0.0,0.0,3,0,130
2,24,3,4263,78,0.0,0.0,0.0,0.0,0.0,0.0,0.0,0.0,0.0,3,0,102
2,24,2,4265,78,0.0,0.0,0.0,0.0,0.0,0.0,0.0,0.0,0.0,3,0,23
2,24,1,4268,79,0.0,0.0,0.0,0.0,0.0,0.0,0.0,0.0,0.0,3,0,28
2,24,2,4270,79,0.0,0.0,0.0,0.0,0.0,0.0,0.0,0.0,0.0,3,0,30
2,24,3,4271,79,0.0,0.0,0.0,0.0,0.0,0.0,0.0,0.0,0.0,3,0,139
2,24,2,4276,80,0.0,0.0,0.0,0.0,0.0,0.0,0.0,0.0,0.0,3,0,156
2,24,1,4277,80,0.0,0.0,0.0,0.0,0.0,0.0,0.0,0.0,0.0,3,0,87
2,24,3,4278,80,0.0,0.0,0.0,0.0,0.0,0.0,0.0,0.0,0.0,3,0,192
2,24,3,4282,81,0.0,0.0,0.0,0.0,0.0,0.0,0.0,0.0,0.0,3,0,203
2,24,1,4283,81,0.0,0.0,0.0,0.0,0.0,0.0,0.0,0.0,0.0,3,0,47
2,24,2,4284,81,0.0,0.0,0.0,0.0,0.0,0.0,0.0,0.0,0.0,3,0,113
2,24,1,4287,82,0.0,0.0,0.0,0.0,0.0,0.0,0.0,0.0,0.0,3,0,163
2,24,3,4288,82,0.0,0.0,0.0,0.0,0.0,0.0,0.0,0.0,0.0,3,0,231
2,24,2,4290,82,0.0,0.0,0.0,0.0,0.0,0.0,0.0,0.0,0.0,3,0,187
2,24,1,4294,83,0.0,0.0,0.0,0.0,0.0,0.0,0.0,0.0,0.0,3,0,10
2,24,2,4295,83,0.0,0.0,0.0,0.0,0.0,0.0,0.0,0.0,0.0,3,0,193
2,24,3,4296,83,0.0,0.0,0.0,0.0,0.0,0.0,0.0,0.0,0.0,3,0,10
2,24,1,4299,84,0.0,0.0,0.0,0.0,0.0,0.0,0.0,0.0,0.0,3,0,111
2,24,2,4300,84,0.0,0.0,0.0,0.0,0.0,0.0,0.0,0.0,0.0,3,0,49
2,24,3,4301,84,0.0,0.0,0.0,0.0,0.0,0.0,0.0,0.0,0.0,3,0,164
2,24,2,4304,85,0.0,0.0,0.0,0.0,0.0,0.0,0.0,0.0,0.0,3,0,171
2,24,3,4305,85,0.0,0.0,0.0,0.0,0.0,0.0,0.0,0.0,0.0,3,0,62
2,24,1,4308,85,0.0,0.0,0.0,0.0,0.0,0.0,0.0,0.0,0.0,3,0,60
2,24,2,4311,86,0.0,0.0,0.0,0.0,0.0,0.0,0.0,0.0,0.0,3,0,238
2,24,1,4312,86,0.0,0.0,0.0,0.0,0.0,0.0,0.0,0.0,0.0,3,0,123
2,24,3,4314,86,0.0,0.0,0.0,0.0,0.0,0.0,0.0,0.0,0.0,3,0,86
2,24,1,4317,87,0.0,0.0,0.0,0.0,0.0,0.0,0.0,0.0,0.0,3,0,1
2,24,2,4318,87,0.0,0.0,0.0,0.0,0.0,0.0,0.0,0.0,0.0,3,0,185
2,24,3,4319,87,0.0,0.0,0.0,0.0,0.0,0.0,0.0,0.0,0.0,3,0,44
2,24,2,4323,88,0.0,0.0,0.0,0.0,0.0,0.0,0.0,0.0,0.0,3,0,95
2,24,1,4324,88,0.0,0.0,0.0,0.0,0.0,0.0,0.0,0.0,0.0,3,0,1
2,24,3,4325,88,0.0,0.0,0.0,0.0,0.0,0.0,0.0,0.0,0.0,3,0,229
2,24,3,4330,89,0.0,0.0,0.0,0.0,0.0,0.0,0.0,0.0,0.0,3,0,39
2,24,2,4331,89,0.0,0.0,0.0,0.0,0.0,0.0,0.0,0.0,0.0,3,0,178
2,24,1,4332,89,0.0,0.0,0.0,0.0,0.0,0.0,0.0,0.0,0.0,3,0,236
2,24,2,4335,90,0.0,0.0,0.0,0.0,0.0,0.0,0.0,0.0,0.0,3,0,62
2,24,3,4336,90,0.0,0.0,0.0,0.0,0.0,0.0,0.0,0.0,0.0,3,0,100
2,24,1,4337,90,0.0,0.0,0.0,0.0,0.0,0.0,0.0,0.0,0.0,3,0,128
2,24,3,4341,91,0.0,0.0,0.0,0.0,0.0,0.0,0.0,0.0,0.0,3,0,30
2,24,1,4342,91,0.0,0.0,0.0,0.0,0.0,0.0,0.0,0.0,0.0,3,0,137
2,24,2,4343,91,0.0,0.0,0.0,0.0,0.0,0.0,0.0,0.0,0.0,3,0,66
2,24,1,4351,92,0.0,0.0,0.0,0.0,0.0,0.0,0.0,0.0,0.0,3,0,10
2,24,3,4352,92,0.0,0.0,0.0,0.0,0.0,0.0,0.0,0.0,0.0,3,0,228
2,24,2,4353,92,0.0,0.0,0.0,0.0,0.0,0.0,0.0,0.0,0.0,3,0,113
2,24,1,4356,93,0.0,0.0,0.0,0.0,0.0,0.0,0.0,0.0,0.0,3,0,122
2,24,2,4357,93,0.0,0.0,0.0,0.0,0.0,0.0,0.0,0.0,0.0,3,0,177
2,24,3,4358,93,0.0,0.0,0.0,0.0,0.0,0.0,0.0,0.0,0.0,3,0,87
2,24,1,4361,94,0.0,0.0,0.0,0.0,0.0,0.0,0.0,0.0,0.0,3,0,135
2,24,3,4362,94,0.0,0.0,0.0,0.0,0.0,0.0,0.0,0.0,0.0,3,0,16
2,24,2,4363,94,0.0,0.0,0.0,0.0,0.0,0.0,0.0,0.0,0.0,3,0,133
2,24,1,4368,95,0.0,0.0,0.0,0.0,0.0,0.0,0.0,0.0,0.0,3,0,65
2,24,3,4369,95,0.0,0.0,0.0,0.0,0.0,0.0,0.0,0.0,0.0,3,0,165
2,24,2,4370,95,0.0,0.0,0.0,0.0,0.0,0.0,0.0,0.0,0.0,3,0,67
2,24,1,4374,96,0.0,0.0,0.0,0.0,0.0,0.0,0.0,0.0,0.0,3,0,163
2,24,3,4375,96,0.0,0.0,0.0,0.0,0.0,0.0,0.0,0.0,0.0,3,0,71
2,24,2,4376,96,0.0,0.0,0.0,0.0,0.0,0.0,0.0,0.0,0.0,3,0,140
2,24,3,4380,97,0.0,0.0,0.0,0.0,0.0,0.0,0.0,0.0,0.0,3,0,99
2,24,1,4381,97,0.0,0.0,0.0,0.0,0.0,0.0,0.0,0.0,0.0,3,0,135
2,24,2,4382,97,0.0,0.0,0.0,0.0,0.0,0.0,0.0,0.0,0.0,3,0,63
2,24,1,4386,98,0.0,0.0,0.0,0.0,0.0,0.0,0.0,0.0,0.0,3,0,189
2,24,3,4388,98,0.0,0.0,0.0,0.0,0.0,0.0,0.0,0.0,0.0,3,0,118
2,24,2,4389,98,0.0,0.0,0.0,0.0,0.0,0.0,0.0,0.0,0.0,3,0,227
2,24,3,4393,99,0.0,0.0,0.0,0.0,0.0,0.0,0.0,0.0,0.0,3,0,199
2,24,1,4395,99,0.0,0.0,0.0,0.0,0.0,0.0,0.0,0.0,0.0,3,0,234
2,24,2,4396,99,0.0,0.0,0.0,0.0,0.0,0.0,0.0,0.0,0.0,3,0,180
2,24,2,4399,100,0.0,0.0,0.0,0.0,0.0,0.0,0.0,0.0,0.0,3,0,143
2,24,1,4400,100,0.0,0.0,0.0,0.0,0.0,0.0,0.0,0.0,0.0,3,0,139
2,24,3,4401,100,0.0,0.0,0.0,0.0,0.0,0.0,0.0,0.0,0.0,3,0,111
2,24,1,4405,101,0.0,0.0,0.0,0.0,0.0,0.0,0.0,0.0,0.0,3,0,241
2,24,3,4406,101,0.0,0.0,0.0,0.0,0.0,0.0,0.0,0.0,0.0,3,0,102
2,24,2,4407,101,0.0,0.0,0.0,0.0,0.0,0.0,0.0,0.0,0.0,3,0,243
2,24,3,4410,102,0.0,0.0,0.0,0.0,0.0,0.0,0.0,0.0,0.0,3,0,33
2,24,2,4411,102,0.0,0.0,0.0,0.0,0.0,0.0,0.0,0.0,0.0,3,0,180
2,24,1,4412,102,0.0,0.0,0.0,0.0,0.0,0.0,0.0,0.0,0.0,3,0,234
2,24,1,4416,103,0.0,0.0,0.0,0.0,0.0,0.0,0.0,0.0,0.0,3,0,31
2,24,3,4417,103,0.0,0.0,0.0,0.0,0.0,0.0,0.0,0.0,0.0,3,0,251
2,24,2,4418,103,0.0,0.0,0.0,0.0,0.0,0.0,0.0,0.0,0.0,3,0,29
2,24,2,4422,104,0.0,0.0,0.0,0.0,0.0,0.0,0.0,0.0,0.0,3,0,62
2,24,3,4423,104,0.0,0.0,0.0,0.0,0.0,0.0,0.0,0.0,0.0,3,0,171
2,24,1,4424,104,0.0,0.0,0.0,0.0,0.0,0.0,0.0,0.0,0.0,3,0,17
2,24,3,4427,105,0.0,0.0,0.0,0.0,0.0,0.0,0.0,0.0,0.0,3,0,160
2,24,2,4428,105,0.0,0.0,0.0,0.0,0.0,0.0,0.0,0.0,0.0,3,0,160
2,24,1,4429,105,0.0,0.0,0.0,0.0,0.0,0.0,0.0,0.0,0.0,3,0,107
2,24,3,4432,106,0.0,0.0,0.0,0.0,0.0,0.0,0.0,0.0,0.0,3,0,89
2,24,2,4433,106,0.0,0.0,0.0,0.0,0.0,0.0,0.0,0.0,0.0,3,0,204
2,24,1,4434,106,0.0,0.0,0.0,0.0,0.0,0.0,0.0,0.0,0.0,3,0,116
2,24,2,4438,107,0.0,0.0,0.0,0.0,0.0,0.0,0.0,0.0,0.0,3,0,197
2,24,1,4439,107,0.0,0.0,0.0,0.0,0.0,0.0,0.0,0.0,0.0,3,0,14
2,24,3,4440,107,0.0,0.0,0.0,0.0,0.0,0.0,0.0,0.0,0.0,3,0,180
2,24,2,4444,108,0.0,0.0,0.0,0.0,0.0,0.0,0.0,0.0,0.0,3,0,143
2,24,1,4445,108,0.0,0.0,0.0,0.0,0.0,0.0,0.0,0.0,0.0,3,0,68
2,24,3,4446,108,0.0,0.0,0.0,0.0,0.0,0.0,0.0,0.0,0.0,3,0,211
2,24,1,4450,109,0.0,0.0,0.0,0.0,0.0,0.0,0.0,0.0,0.0,3,0,50
2,24,2,4451,109,0.0,0.0,0.0,0.0,0.0,0.0,0.0,0.0,0.0,3,0,249
2,24,3,4452,109,0.0,0.0,0.0,0.0,0.0,0.0,0.0,0.0,0.0,3,0,249
2,24,3,4456,110,0.0,0.0,0.0,0.0,0.0,0.0,0.0,0.0,0.0,3,0,190
2,24,2,4457,110,0.0,0.0,0.0,0.0,0.0,0.0,0.0,0.0,0.0,3,0,43
2,24,1,4458,110,0.0,0.0,0.0,0.0,0.0,0.0,0.0,0.0,0.0,3,0,147
2,24,3,4462,111,0.0,0.0,0.0,0.0,0.0,0.0,0.0,0.0,0.0,3,0,13
2,24,1,4463,111,0.0,0.0,0.0,0.0,0.0,0.0,0.0,0.0,0.0,3,0,233
2,24,2,4464,111,0.0,0.0,0.0,0.0,0.0,0.0,0.0,0.0,0.0,3,0,237
2,24,1,4467,112,0.0,0.0,0.0,0.0,0.0,0.0,0.0,0.0,0.0,3,0,254
2,24,2,4468,112,0.0,0.0,0.0,0.0,0.0,0.0,0.0,0.0,0.0,3,0,160
2,24,3,4471,112,0.0,0.0,0.0,0.0,0.0,0.0,0.0,0.0,0.0,3,0,70
2,24,1,4475,113,0.0,0.0,0.0,0.0,0.0,0.0,0.0,0.0,0.0,3,0,19
2,24,2,4476,113,0.0,0.0,0.0,0.0,0.0,0.0,0.0,0.0,0.0,3,0,77
2,24,3,4477,113,0.0,0.0,0.0,0.0,0.0,0.0,0.0,0.0,0.0,3,0,216
2,24,2,4481,114,0.0,0.0,0.0,0.0,0.0,0.0,0.0,0.0,0.0,3,0,218
2,24,1,4482,114,0.0,0.0,0.0,0.0,0.0,0.0,0.0,0.0,0.0,3,0,98
2,24,3,4483,114,0.0,0.0,0.0,0.0,0.0,0.0,0.0,0.0,0.0,3,0,134
2,24,1,4487,115,0.0,0.0,0.0,0.0,0.0,0.0,0.0,0.0,0.0,3,0,24
2,24,2,4488,115,0.0,0.0,0.0,0.0,0.0,0.0,0.0,0.0,0.0,3,0,141
2,24,3,4490,115,0.0,0.0,0.0,0.0,0.0,0.0,0.0,0.0,0.0,3,0,209
2,24,2,4494,116,0.0,0.0,0.0,0.0,0.0,0.0,0.0,0.0,0.0,3,0,234
2,24,1,4495,116,0.0,0.0,0.0,0.0,0.0,0.0,0.0,0.0,0.0,3,0,33
2,24,3,4497,116,0.0,0.0,0.0,0.0,0.0,0.0,0.0,0.0,0.0,3,0,176
2,24,2,4500,117,0.0,0.0,0.0,0.0,0.0,0.0,0.0,0.0,0.0,3,0,229
2,24,1,4501,117,0.0,0.0,0.0,0.0,0.0,0.0,0.0,0.0,0.0,3,0,46
2,24,3,4502,117,0.0,0.0,0.0,0.0,0.0,0.0,0.0,0.0,0.0,3,0,185
2,24,2,4506,118,0.0,0.0,0.0,0.0,0.0,0.0,0.0,0.0,0.0,3,0,209
2,24,3,4507,118,0.0,0.0,0.0,0.0,0.0,0.0,0.0,0.0,0.0,3,0,68
2,24,1,4508,118,0.0,0.0,0.0,0.0,0.0,0.0,0.0,0.0,0.0,3,0,53
2,24,1,4511,119,0.0,0.0,0.0,0.0,0.0,0.0,0.0,0.0,0.0,3,0,218
2,24,3,4512,119,0.0,0.0,0.0,0.0,0.0,0.0,0.0,0.0,0.0,3,0,212
2,24,2,4513,119,0.0,0.0,0.0,0.0,0.0,0.0,0.0,0.0,0.0,3,0,65
2,24,1,4517,120,0.0,0.0,0.0,0.0,0.0,0.0,0.0,0.0,0.0,3,0,19
2,24,3,4519,120,0.0,0.0,0.0,0.0,0.0,0.0,0.0,0.0,0.0,3,0,62
2,24,2,4520,120,0.0,0.0,0.0,0.0,0.0,0.0,0.0,0.0,0.0,3,0,245
2,24,1,4523,121,0.0,0.0,0.0,0.0,0.0,0.0,0.0,0.0,0.0,3,0,107
2,24,3,4524,121,0.0,0.0,0.0,0.0,0.0,0.0,0.0,0.0,0.0,3,0,26
2,24,2,4525,121,0.0,0.0,0.0,0.0,0.0,0.0,0.0,0.0,0.0,3,0,143
2,24,1,4529,122,0.0,0.0,0.0,0.0,0.0,0.0,0.0,0.0,0.0,3,0,40
2,24,3,4530,122,0.0,0.0,0.0,0.0,0.0,0.0,0.0,0.0,0.0,3,0,191
2,24,2,4531,122,0.0,0.0,0.0,0.0,0.0,0.0,0.0,0.0,0.0,3,0,42
2,24,2,4535,123,0.0,0.0,0.0,0.0,0.0,0.0,0.0,0.0,0.0,3,0,234
2,24,1,4536,123,0.0,0.0,0.0,0.0,0.0,0.0,0.0,0.0,0.0,3,0,127
2,24,3,4537,123,0.0,0.0,0.0,0.0,0.0,0.0,0.0,0.0,0.0,3,0,155
2,24,2,4550,124,0.0,0.0,0.0,0.0,0.0,0.0,0.0,0.0,0.0,3,0,92
2,24,1,4551,124,0.0,0.0,0.0,0.0,0.0,0.0,0.0,0.0,0.0,3,0,151
2,24,3,4552,124,0.0,0.0,0.0,0.0,0.0,0.0,0.0,0.0,0.0,3,0,45
2,24,3,4555,125,0.0,0.0,0.0,0.0,0.0,0.0,0.0,0.0,0.0,3,0,194
2,24,1,4556,125,0.0,0.0,0.0,0.0,0.0,0.0,0.0,0.0,0.0,3,0,179
2,24,2,4557,125,0.0,0.0,0.0,0.0,0.0,0.0,0.0,0.0,0.0,3,0,120
2,24,2,4561,126,0.0,0.0,0.0,0.0,0.0,0.0,0.0,0.0,0.0,3,0,174
2,24,1,4562,126,0.0,0.0,0.0,0.0,0.0,0.0,0.0,0.0,0.0,3,0,22
2,24,3,4563,126,0.0,0.0,0.0,0.0,0.0,0.0,0.0,0.0,0.0,3,0,242
2,24,2,4567,127,0.0,0.0,0.0,0.0,0.0,0.0,0.0,0.0,0.0,3,0,29
2,24,1,4568,127,0.0,0.0,0.0,0.0,0.0,0.0,0.0,0.0,0.0,3,0,136
2,24,3,4569,127,0.0,0.0,0.0,0.0,0.0,0.0,0.0,0.0,0.0,3,0,108
2,24,1,4573,128,0.0,0.0,0.0,0.0,0.0,0.0,0.0,0.0,0.0,3,0,101
2,24,3,4574,128,0.0,0.0,0.0,0.0,0.0,0.0,0.0,0.0,0.0,3,0,242
2,24,2,4575,128,0.0,0.0,0.0,0.0,0.0,0.0,0.0,0.0,0.0,3,0,103
2,24,3,4579,129,0.0,0.0,0.0,0.0,0.0,0.0,0.0,0.0,0.0,3,0,247
2,24,1,4580,129,0.0,0.0,0.0,0.0,0.0,0.0,0.0,0.0,0.0,3,0,134
2,24,2,4581,129,0.0,0.0,0.0,0.0,0.0,0.0,0.0,0.0,0.0,3,0,77
2,24,1,4585,130,0.0,0.0,0.0,0.0,0.0,0.0,0.0,0.0,0.0,3,0,123
2,24,3,4587,130,0.0,0.0,0.0,0.0,0.0,0.0,0.0,0.0,0.0,3,0,86
2,24,2,4588,130,0.0,0.0,0.0,0.0,0.0,0.0,0.0,0.0,0.0,3,0,86
2,24,3,4592,131,0.0,0.0,0.0,0.0,0.0,0.0,0.0,0.0,0.0,3,0,227
2,24,1,4593,131,0.0,0.0,0.0,0.0,0.0,0.0,0.0,0.0,0.0,3,0,7
2,24,2,4594,131,0.0,0.0,0.0,0.0,0.0,0.0,0.0,0.0,0.0,3,0,191
2,24,2,4597,132,0.0,0.0,0.0,0.0,0.0,0.0,0.0,0.0,0.0,3,0,98
2,24,1,4599,132,0.0,0.0,0.0,0.0,0.0,0.0,0.0,0.0,0.0,3,0,96
2,24,3,4600,132,0.0,0.0,0.0,0.0,0.0,0.0,0.0,0.0,0.0,3,0,218
2,24,1,4603,133,0.0,0.0,0.0,0.0,0.0,0.0,0.0,0.0,0.0,3,0,107
2,24,3,4604,133,0.0,0.0,0.0,0.0,0.0,0.0,0.0,0.0,0.0,3,0,26
2,24,2,4605,133,0.0,0.0,0.0,0.0,0.0,0.0,0.0,0.0,0.0,3,0,143
2,24,1,4609,134,0.0,0.0,0.0,0.0,0.0,0.0,0.0,0.0,0.0,3,0,145
2,24,3,4610,134,0.0,0.0,0.0,0.0,0.0,0.0,0.0,0.0,0.0,3,0,6
2,24,2,4611,134,0.0,0.0,0.0,0.0,0.0,0.0,0.0,0.0,0.0,3,0,147
2,24,1,4615,135,0.0,0.0,0.0,0.0,0.0,0.0,0.0,0.0,0.0,3,0,34
2,24,2,4616,135,0.0,0.0,0.0,0.0,0.0,0.0,0.0,0.0,0.0,3,0,183
2,24,3,4617,135,0.0,0.0,0.0,0.0,0.0,0.0,0.0,0.0,0.0,3,0,34
2,24,1,4621,136,0.0,0.0,0.0,0.0,0.0,0.0,0.0,0.0,0.0,3,0,95
2,24,3,4622,136,0.0,0.0,0.0,0.0,0.0,0.0,0.0,0.0,0.0,3,0,200
2,24,2,4623,136,0.0,0.0,0.0,0.0,0.0,0.0,0.0,0.0,0.0,3,0,93
2,24,1,4626,137,0.0,0.0,0.0,0.0,0.0,0.0,0.0,0.0,0.0,3,0,12
2,24,3,4627,137,0.0,0.0,0.0,0.0,0.0,0.0,0.0,0.0,0.0,3,0,232
2,24,2,4628,137,0.0,0.0,0.0,0.0,0.0,0.0,0.0,0.0,0.0,3,0,232
2,24,2,4632,138,0.0,0.0,0.0,0.0,0.0,0.0,0.0,0.0,0.0,3,0,175
2,24,3,4633,138,0.0,0.0,0.0,0.0,0.0,0.0,0.0,0.0,0.0,3,0,58
2,24,1,4634,138,0.0,0.0,0.0,0.0,0.0,0.0,0.0,0.0,0.0,3,0,173
2,24,3,4637,139,0.0,0.0,0.0,0.0,0.0,0.0,0.0,0.0,0.0,3,0,250
2,24,1,4638,139,0.0,0.0,0.0,0.0,0.0,0.0,0.0,0.0,0.0,3,0,109
2,24,2,4639,139,0.0,0.0,0.0,0.0,0.0,0.0,0.0,0.0,0.0,3,0,166
2,24,3,4643,140,0.0,0.0,0.0,0.0,0.0,0.0,0.0,0.0,0.0,3,0,226
2,24,1,4644,140,0.0,0.0,0.0,0.0,0.0,0.0,0.0,0.0,0.0,3,0,147
2,24,2,4645,140,0.0,0.0,0.0,0.0,0.0,0.0,0.0,0.0,0.0,3,0,88
2,24,1,4649,141,0.0,0.0,0.0,0.0,0.0,0.0,0.0,0.0,0.0,3,0,34
2,24,2,4650,141,0.0,0.0,0.0,0.0,0.0,0.0,0.0,0.0,0.0,3,0,154
2,24,3,4651,141,0.0,0.0,0.0,0.0,0.0,0.0,0.0,0.0,0.0,3,0,15
2,24,1,4655,142,0.0,0.0,0.0,0.0,0.0,0.0,0.0,0.0,0.0,3,0,221
2,24,2,4656,142,0.0,0.0,0.0,0.0,0.0,0.0,0.0,0.0,0.0,3,0,217
2,24,3,4657,142,0.0,0.0,0.0,0.0,0.0,0.0,0.0,0.0,0.0,3,0,76
2,24,3,4661,143,0.0,0.0,0.0,0.0,0.0,0.0,0.0,0.0,0.0,3,0,140
2,24,1,4662,143,0.0,0.0,0.0,0.0,0.0,0.0,0.0,0.0,0.0,3,0,27
2,24,2,4663,143,0.0,0.0,0.0,0.0,0.0,0.0,0.0,0.0,0.0,3,0,208
2,24,2,4668,144,0.0,0.0,0.0,0.0,0.0,0.0,0.0,0.0,0.0,3,0,121
2,24,3,4669,144,0.0,0.0,0.0,0.0,0.0,0.0,0.0,0.0,0.0,3,0,236
2,24,1,4670,144,0.0,0.0,0.0,0.0,0.0,0.0,0.0,0.0,0.0,3,0,123
2,24,3,4673,145,-0.474609375,0.869384765625,0.01416015625,2.99835205078125,-3.6163330078125,-2.54058837890625,-0.3431396484375,-0.22607421875,-0.013427734375,11,0,26
2,24,1,4675,145,-0.243408203125,0.962158203125,0.063232421875,2.166748046875,-3.77655029296875,-0.38909912109375,1.1729736328125,1.1640625,-0.2882080078125,11,0,178
2,24,2,4676,145,-0.45458984375,0.875732421875,-0.20166015625,4.32586669921875,-6.84356689453125,-1.76239013671875,-0.30322265625,-0.031982421875,0.2818603515625,11,0,106
2,24,1,4679,146,-0.243408203125,0.962158203125,0.063232421875,2.166748046875,-3.77655029296875,-0.38909912109375,1.1729736328125,1.1640625,-0.2882080078125,11,0,62
2,24,3,4680,146,-0.474609375,0.869384765625,0.01416015625,2.99835205078125,-3.6163330078125,-2.54058837890625,-0.3431396484375,-0.22607421875,-0.013427734375,11,0,1
2,24,2,4681,146,-0.45458984375,0.875732421875,-0.20166015625,4.32586669921875,-6.84356689453125,-1.76239013671875,-0.30322265625,-0.031982421875,0.2818603515625,11,0,151
2,24,2,4685,147,-0.45458984375,0.875732421875,-0.20166015625,4.32586669921875,-6.84356689453125,-1.76239013671875,-0.30322265625,-0.031982421875,0.2818603515625,11,0,87
2,24,3,4686,147,-0.474609375,0.869384765625,0.01416015625,2.99835205078125,-3.6163330078125,-2.54058837890625,-0.3431396484375,-0.22607421875,-0.013427734375,11,0,178
2,24,1,4687,147,-0.243408203125,0.962158203125,0.063232421875,2.166748046875,-3.77655029296875,-0.38909912109375,1.1729736328125,1.1640625,-0.2882080078125,11,0,211
2,24,1,4691,148,-0.240478515625,0.961669921875,0.06787109375,2.2125244140625,-4.0435791015625,-0.42724609375,1.1724853515625,1.1763916015625,-0.296630859375,11,0,174
2,24,3,4692,148,-0.47021484375,0.876220703125,0.02197265625,3.04412841796875,-3.7994384765625,-2.60162353515625,-0.3431396484375,-0.207763671875,-0.0103759765625,11,0,14
2,24,2,4694,148,-0.4580078125,0.874267578125,-0.195068359375,4.26483154296875,-6.78253173828125,-1.57928466796875,-0.304443359375,-0.027587890625,0.2772216796875,11,0,158
2,24,1,4698,149,-0.240478515625,0.961669921875,0.06787109375,2.2125244140625,-4.0435791015625,-0.42724609375,1.1724853515625,1.1763916015625,-0.296630859375,11,0,249
2,24,3,4699,149,-0.47021484375,0.876220703125,0.02197265625,3.04412841796875,-3.7994384765625,-2.60162353515625,-0.3431396484375,-0.207763671875,-0.0103759765625,11,0,204
2,24,2,4701,149,-0.4580078125,0.874267578125,-0.195068359375,4.26483154296875,-6.78253173828125,-1.57928466796875,-0.304443359375,-0.027587890625,0.2772216796875,11,0,186
2,24,1,4705,150,-0.24560546875,0.9560546875,0.070556640625,2.64739990234375,-4.05120849609375,-0.40435791015625,1.174560546875,1.17822265625,-0.2930908203125,11,0,146
2,24,2,4706,150,-0.4580078125,0.874267578125,-0.195068359375,4.26483154296875,-6.78253173828125,-1.57928466796875,-0.304443359375,-0.027587890625,0.2772216796875,11,0,128
2,24,3,4707,150,-0.470458984375,0.8701171875,0.012451171875,3.0975341796875,-3.692626953125,-2.593994140625,-0.3409423828125,-0.2105712890625,-0.0137939453125,11,0,37
2,24,2,4711,151,-0.45703125,0.8720703125,-0.197509765625,4.241943359375,-6.87408447265625,-1.77001953125,-0.3040771484375,-0.0360107421875,0.2825927734375,11,0,216
2,24,1,4712,151,-0.24560546875,0.9560546875,0.070556640625,2.64739990234375,-4.05120849609375,-0.40435791015625,1.174560546875,1.17822265625,-0.2930908203125,11,0,197
2,24,3,4714,151,-0.470458984375,0.8701171875,0.012451171875,3.0975341796875,-3.692626953125,-2.593994140625,-0.3409423828125,-0.2105712890625,-0.0137939453125,11,0,114
2,24,1,4718,152,-0.24560546875,0.9560546875,0.070556640625,2.64739990234375,-4.05120849609375,-0.40435791015625,1.174560546875,1.17822265625,-0.2930908203125,11,0,149
2,24,3,4720,152,-0.470458984375,0.8701171875,0.012451171875,3.0975341796875,-3.692626953125,-2.593994140625,-0.3409423828125,-0.2105712890625,-0.0137939453125,11,0,158
2,24,2,4721,152,-0.45703125,0.8720703125,-0.197509765625,4.241943359375,-6.87408447265625,-1.77001953125,-0.3040771484375,-0.0360107421875,0.2825927734375,11,0,25
2,24,2,4724,153,-0.45703125,0.8720703125,-0.197509765625,4.241943359375,-6.87408447265625,-1.77001953125,-0.3040771484375,-0.0360107421875,0.2825927734375,11,0,99
2,24,1,4725,153,-0.24462890625,0.959716796875,0.07470703125,3.30352783203125,-3.74603271484375,-0.03814697265625,1.169677734375,1.162353515625,-0.2880859375,11,0,153
2,24,3,4726,153,-0.472900390625,0.87109375,0.01806640625,3.02886962890625,-3.5552978515625,-2.61688232421875,-0.344970703125,-0.223876953125,-0.01123046875,11,0,240
2,24,3,4730,154,-0.472900390625,0.87109375,0.01806640625,3.02886962890625,-3.5552978515625,-2.61688232421875,-0.344970703125,-0.223876953125,-0.01123046875,11,0,183
2,24,1,4731,154,-0.24462890625,0.959716796875,0.07470703125,3.30352783203125,-3.74603271484375,-0.03814697265625,1.169677734375,1.162353515625,-0.2880859375,11,0,173
2,24,2,4732,154,-0.456787109375,0.872314453125,-0.197509765625,4.47845458984375,-6.82830810546875,-1.739501953125,-0.3065185546875,-0.0355224609375,0.2945556640625,11,0,232
2,24,3,4736,155,-0.472900390625,0.87109375,0.01806640625,3.02886962890625,-3.5552978515625,-2.61688232421875,-0.344970703125,-0.223876953125,-0.01123046875,11,0,67
2,24,2,4737,155,-0.456787109375,0.872314453125,-0.197509765625,4.47845458984375,-6.82830810546875,-1.739501953125,-0.3065185546875,-0.0355224609375,0.2945556640625,11,0,51
2,24,1,4738,155,-0.24462890625,0.959716796875,0.07470703125,3.30352783203125,-3.74603271484375,-0.03814697265625,1.169677734375,1.162353515625,-0.2880859375,11,0,144
2,24,2,4741,156,-0.456787109375,0.872314453125,-0.197509765625,4.47845458984375,-6.82830810546875,-1.739501953125,-0.3065185546875,-0.0355224609375,0.2945556640625,11,0,39
2,24,3,4742,156,-0.4697265625,0.8701171875,0.014892578125,2.90679931640625,-3.70025634765625,-2.57110595703125,-0.3416748046875,-0.2271728515625,-0.017333984375,11,0,7
2,24,1,4743,156,-0.251220703125,0.961669921875,0.072998046875,2.79998779296875,-4.05120849609375,-0.28228759765625,1.172607421875,1.1676025390625,-0.2930908203125,11,0,151
2,24,3,4747,157,-0.4697265625,0.8701171875,0.014892578125,2.90679931640625,-3.70025634765625,-2.57110595703125,-0.3416748046875,-0.2271728515625,-0.017333984375,11,0,182
2,24,2,4748,157,-0.46484375,0.87109375,-0.1943359375,4.35638427734375,-6.81304931640625,-1.739501953125,-0.3077392578125,-0.023193359375,0.2781982421875,11,0,227
2,24,1,4749,157,-0.251220703125,0.961669921875,0.072998046875,2.79998779296875,-4.05120849609375,-0.28228759765625,1.172607421875,1.1676025390625,-0.2930908203125,11,0,9
2,24,1,4752,158,-0.251220703125,0.961669921875,0.072998046875,2.79998779296875,-4.05120849609375,-0.28228759765625,1.172607421875,1.1676025390625,-0.2930908203125,11,0,101
2,24,2,4753,158,-0.46484375,0.87109375,-0.1943359375,4.35638427734375,-6.81304931640625,-1.739501953125,-0.3077392578125,-0.023193359375,0.2781982421875,11,0,143
2,24,3,4754,158,-0.4697265625,0.8701171875,0.014892578125,2.90679931640625,-3.70025634765625,-2.57110595703125,-0.3416748046875,-0.2271728515625,-0.017333984375,11,0,60
2,24,1,4757,159,-0.247802734375,0.9638671875,0.060302734375,1.5869140625,-5.0048828125,-0.396728515625,1.1722412109375,1.1607666015625,-0.2916259765625,11,0,91
2,24,2,4759,159,-0.46484375,0.87109375,-0.1943359375,4.35638427734375,-6.81304931640625,-1.739501953125,-0.3077392578125,-0.023193359375,0.2781982421875,11,0,60
2,24,3,4760,159,-0.4697265625,0.8701171875,0.014892578125,2.90679931640625,-3.70025634765625,-2.57110595703125,-0.3416748046875,-0.2271728515625,-0.017333984375,11,0,162
2,24,1,4764,160,-0.247802734375,0.9638671875,0.060302734375,1.5869140625,-5.0048828125,-0.396728515625,1.1722412109375,1.1607666015625,-0.2916259765625,11,0,93
2,24,2,4765,160,-0.45703125,0.87060546875,-0.192138671875,4.35638427734375,-6.95037841796875,-1.65557861328125,-0.314453125,-0.028564453125,0.281494140625,11,0,246
2,24,3,4766,160,-0.4736328125,0.87109375,0.01611328125,2.78472900390625,-3.570556640625,-2.51007080078125,-0.3424072265625,-0.208984375,-0.01416015625,11,0,247
2,24,1,4770,161,-0.247802734375,0.9638671875,0.060302734375,1.5869140625,-5.0048828125,-0.396728515625,1.1722412109375,1.1607666015625,-0.2916259765625,11,0,145
2,24,3,4771,161,-0.4736328125,0.87109375,0.01611328125,2.78472900390625,-3.570556640625,-2.51007080078125,-0.3424072265625,-0.208984375,-0.01416015625,11,0,242
2,24,2,4772,161,-0.45703125,0.87060546875,-0.192138671875,4.35638427734375,-6.95037841796875,-1.65557861328125,-0.314453125,-0.028564453125,0.281494140625,11,0,21
2,24,3,4777,162,-0.468017578125,0.868896484375,0.0205078125,2.72369384765625,-3.39508056640625,-2.3193359375,-0.3424072265625,-0.2381591796875,-0.0096435546875,11,0,39
2,24,1,4778,162,-0.246337890625,0.95654296875,0.064453125,1.007080078125,-5.42449951171875,-0.7171630859375,1.169189453125,1.1800537109375,-0.2979736328125,11,0,162
2,24,2,4780,162,-0.45703125,0.87060546875,-0.192138671875,4.35638427734375,-6.95037841796875,-1.65557861328125,-0.314453125,-0.028564453125,0.281494140625,11,0,180
2,24,2,4785,163,-0.463134765625,0.866455078125,-0.19970703125,4.50897216796875,-6.82830810546875,-1.5716552734375,-0.30712890625,-0.029541015625,0.2750244140625,11,0,182
2,24,1,4786,163,-0.246337890625,0.95654296875,0.064453125,1.007080078125,-5.42449951171875,-0.7171630859375,1.169189453125,1.1800537109375,-0.2979736328125,11,0,222
2,24,3,4787,163,-0.468017578125,0.868896484375,0.0205078125,2.72369384765625,-3.39508056640625,-2.3193359375,-0.3424072265625,-0.2381591796875,-0.0096435546875,11,0,40
2,24,1,4790,164,-0.246337890625,0.95654296875,0.064453125,1.007080078125,-5.42449951171875,-0.7171630859375,1.169189453125,1.1800537109375,-0.2979736328125,11,0,202
2,24,3,4791,164,-0.473876953125,0.875,0.017822265625,2.69317626953125,-3.326416015625,-2.32696533203125,-0.343994140625,-0.2269287109375,-0.00390625,11,0,127
2,24,2,4792,164,-0.463134765625,0.866455078125,-0.19970703125,4.50897216796875,-6.82830810546875,-1.5716552734375,-0.30712890625,-0.029541015625,0.2750244140625,11,0,53
2,24,3,4796,165,-0.473876953125,0.875,0.017822265625,2.69317626953125,-3.326416015625,-2.32696533203125,-0.343994140625,-0.2269287109375,-0.00390625,11,0,91
2,24,1,4797,165,-0.246826171875,0.953125,0.05712890625,0.8544921875,-6.06536865234375,-0.69427490234375,1.1727294921875,1.18212890625,-0.2967529296875,11,0,131
2,24,2,4798,165,-0.463134765625,0.866455078125,-0.19970703125,4.50897216796875,-6.82830810546875,-1.5716552734375,-0.30712890625,-0.029541015625,0.2750244140625,11,0,134
2,24,1,4802,166,-0.246826171875,0.953125,0.05712890625,0.8544921875,-6.06536865234375,-0.69427490234375,1.1727294921875,1.18212890625,-0.2967529296875,11,0,243
2,24,2,4804,166,-0.454833984375,0.86962890625,-0.198974609375,4.5318603515625,-6.98089599609375,-1.82342529296875,-0.3148193359375,-0.0281982421875,0.2733154296875,11,0,37
2,24,3,4805,166,-0.473876953125,0.875,0.017822265625,2.69317626953125,-3.326416015625,-2.32696533203125,-0.343994140625,-0.2269287109375,-0.00390625,11,0,190
2,24,2,4809,167,-0.454833984375,0.86962890625,-0.198974609375,4.5318603515625,-6.98089599609375,-1.82342529296875,-0.3148193359375,-0.0281982421875,0.2733154296875,11,0,148
2,24,3,4810,167,-0.474609375,0.87158203125,0.016357421875,2.74658203125,-3.4332275390625,-2.25830078125,-0.3466796875,-0.2271728515625,-0.005859375,11,0,224
2,24,1,4812,167,-0.2451171875,0.957763671875,0.06640625,0.91552734375,-6.47735595703125,-0.732421875,1.171142578125,1.177978515625,-0.3033447265625,11,0,99
2,24,1,4816,168,-0.2451171875,0.957763671875,0.06640625,0.91552734375,-6.47735595703125,-0.732421875,1.171142578125,1.177978515625,-0.3033447265625,11,0,26
2,24,3,4817,168,-0.474609375,0.87158203125,0.016357421875,2.74658203125,-3.4332275390625,-2.25830078125,-0.3466796875,-0.2271728515625,-0.005859375,11,0,182
2,24,2,4818,168,-0.459228515625,0.869140625,-0.203369140625,4.791259765625,-6.96563720703125,-1.74713134765625,-0.310791015625,-0.02880859375,0.2791748046875,11,0,236
2,24,2,4822,169,-0.459228515625,0.869140625,-0.203369140625,4.791259765625,-6.96563720703125,-1.74713134765625,-0.310791015625,-0.02880859375,0.2791748046875,11,0,44
2,24,1,4823,169,-0.2451171875,0.957763671875,0.06640625,0.91552734375,-6.47735595703125,-0.732421875,1.171142578125,1.177978515625,-0.3033447265625,11,0,19
2,24,3,4826,169,-0.474609375,0.87158203125,0.016357421875,2.74658203125,-3.4332275390625,-2.25830078125,-0.3466796875,-0.2271728515625,-0.005859375,11,0,146
2,24,1,4830,170,-0.2451171875,0.9619140625,0.0673828125,0.5035400390625,-6.8511962890625,-0.6866455078125,1.1702880859375,1.173828125,-0.29833984375,11,0,74
2,24,2,4831,170,-0.459228515625,0.869140625,-0.203369140625,4.791259765625,-6.96563720703125,-1.74713134765625,-0.310791015625,-0.02880859375,0.2791748046875,11,0,55
2,24,3,4832,170,-0.47216796875,0.871826171875,0.0185546875,2.95257568359375,-3.82232666015625,-2.46429443359375,-0.3448486328125,-0.2041015625,-0.0167236328125,11,0,240
2,24,1,4835,171,-0.2451171875,0.9619140625,0.0673828125,0.5035400390625,-6.8511962890625,-0.6866455078125,1.1702880859375,1.173828125,-0.29833984375,11,0,79
2,24,3,4836,171,-0.47216796875,0.871826171875,0.0185546875,2.95257568359375,-3.82232666015625,-2.46429443359375,-0.3448486328125,-0.2041015625,-0.0167236328125,11,0,48
2,24,2,4837,171,-0.4560546875,0.872802734375,-0.19482421875,4.61578369140625,-6.8359375,-1.9683837890625,-0.3106689453125,-0.028564453125,0.28515625,11,0,159
2,24,3,4841,172,-0.47216796875,0.871826171875,0.0185546875,2.95257568359375,-3.82232666015625,-2.46429443359375,-0.3448486328125,-0.2041015625,-0.0167236328125,11,0,85
2,24,2,4842,172,-0.4560546875,0.872802734375,-0.19482421875,4.61578369140625,-6.8359375,-1.9683837890625,-0.3106689453125,-0.028564453125,0.28515625,11,0,137
2,24,1,4844,172,-0.2451171875,0.9619140625,0.0673828125,0.5035400390625,-6.8511962890625,-0.6866455078125,1.1702880859375,1.173828125,-0.29833984375,11,0,89
2,24,1,4847,173,-0.23876953125,0.958740234375,0.070556640625,0.152587890625,-6.95037841796875,-0.8697509765625,1.1748046875,1.1802978515625,-0.2923583984375,11,0,254
2,24,3,4848,173,-0.469970703125,0.871337890625,0.019775390625,2.73895263671875,-3.4942626953125,-2.105712890625,-0.3421630859375,-0.2061767578125,-0.018310546875,11,0,11
2,24,2,4849,173,-0.4560546875,0.872802734375,-0.19482421875,4.61578369140625,-6.8359375,-1.9683837890625,-0.3106689453125,-0.028564453125,0.28515625,11,0,60
2,24,1,4853,174,-0.23876953125,0.958740234375,0.070556640625,0.152587890625,-6.95037841796875,-0.8697509765625,1.1748046875,1.1802978515625,-0.2923583984375,11,0,189
2,24,3,4854,174,-0.469970703125,0.871337890625,0.019775390625,2.73895263671875,-3.4942626953125,-2.105712890625,-0.3421630859375,-0.2061767578125,-0.018310546875,11,0,244
2,24,2,4855,174,-0.45556640625,0.873291015625,-0.199462890625,4.82940673828125,-6.73675537109375,-1.8310546875,-0.3148193359375,-0.028564453125,0.279296875,11,0,142
2,24,1,4859,175,-0.23876953125,0.958740234375,0.070556640625,0.152587890625,-6.95037841796875,-0.8697509765625,1.1748046875,1.1802978515625,-0.2923583984375,11,0,197
2,24,2,4860,175,-0.45556640625,0.873291015625,-0.199462890625,4.82940673828125,-6.73675537109375,-1.8310546875,-0.3148193359375,-0.028564453125,0.279296875,11,0,170
2,24,3,4861,175,-0.466796875,0.873046875,0.01904296875,2.84576416015625,-3.82232666015625,-2.3345947265625,-0.342041015625,-0.22021484375,-0.0120849609375,11,0,8
2,24,3,4865,176,-0.466796875,0.873046875,0.01904296875,2.84576416015625,-3.82232666015625,-2.3345947265625,-0.342041015625,-0.22021484375,-0.0120849609375,11,0,218
2,24,2,4866,176,-0.45556640625,0.873291015625,-0.199462890625,4.82940673828125,-6.73675537109375,-1.8310546875,-0.3148193359375,-0.028564453125,0.279296875,11,0,11
2,24,1,4867,176,-0.2353515625,0.954345703125,0.070556640625,0.14495849609375,-6.82830810546875,-0.8697509765625,1.1751708984375,1.1634521484375,-0.305419921875,11,0,42
2,24,3,4870,177,-0.466796875,0.873046875,0.01904296875,2.84576416015625,-3.82232666015625,-2.3345947265625,-0.342041015625,-0.22021484375,-0.0120849609375,11,0,211
2,24,1,4871,177,-0.2353515625,0.954345703125,0.070556640625,0.14495849609375,-6.82830810546875,-0.8697509765625,1.1751708984375,1.1634521484375,-0.305419921875,11,0,234
2,24,2,4872,177,-0.451416015625,0.875,-0.198974609375,4.669189453125,-6.96563720703125,-1.861572265625,-0.306396484375,-0.0274658203125,0.27392578125,11,0,229
2,24,1,4876,178,-0.2353515625,0.954345703125,0.070556640625,0.14495849609375,-6.82830810546875,-0.8697509765625,1.1751708984375,1.1634521484375,-0.305419921875,11,0,130
2,24,3,4877,178,-0.466796875,0.873046875,0.01904296875,2.84576416015625,-3.82232666015625,-2.3345947265625,-0.342041015625,-0.22021484375,-0.0120849609375,11,0,187
2,24,2,4878,178,-0.451416015625,0.875,-0.198974609375,4.669189453125,-6.96563720703125,-1.861572265625,-0.306396484375,-0.0274658203125,0.27392578125,11,0,26
2,24,3,4882,179,-0.466552734375,0.871826171875,0.020263671875,2.89154052734375,-3.662109375,-2.2125244140625,-0.3438720703125,-0.22607421875,-0.0013427734375,11,0,14
2,24,1,4883,179,-0.234130859375,0.9599609375,0.06884765625,0.030517578125,-6.0882568359375,-0.84686279296875,1.1708984375,1.1806640625,-0.300048828125,11,0,219
2,24,2,4884,179,-0.451416015625,0.875,-0.198974609375,4.669189453125,-6.96563720703125,-1.861572265625,-0.306396484375,-0.0274658203125,0.27392578125,11,0,21
2,24,1,4887,180,-0.234130859375,0.9599609375,0.06884765625,0.030517578125,-6.0882568359375,-0.84686279296875,1.1708984375,1.1806640625,-0.300048828125,11,0,207
2,24,2,4888,180,-0.45703125,0.873046875,-0.201416015625,4.486083984375,-6.75201416015625,-1.8768310546875,-0.30712890625,-0.03369140625,0.281494140625,11,0,78
2,24,3,4890,180,-0.466552734375,0.871826171875,0.020263671875,2.89154052734375,-3.662109375,-2.2125244140625,-0.3438720703125,-0.22607421875,-0.0013427734375,11,0,55
2,24,1,4894,181,-0.234130859375,0.9599609375,0.06884765625,0.030517578125,-6.0882568359375,-0.84686279296875,1.1708984375,1.1806640625,-0.300048828125,11,0,152
2,24,2,4895,181,-0.45703125,0.873046875,-0.201416015625,4.486083984375,-6.75201416015625,-1.8768310546875,-0.30712890625,-0.03369140625,0.281494140625,11,0,71
2,24,3,4896,181,-0.466552734375,0.871826171875,0.020263671875,2.89154052734375,-3.662109375,-2.2125244140625,-0.3438720703125,-0.22607421875,-0.0013427734375,11,0,29
2,24,1,4900,182,-0.233642578125,0.95849609375,0.07373046875,0.43487548828125,-5.0811767578125,-0.96893310546875,1.173828125,1.1748046875,-0.3028564453125,11,0,167
2,24,3,4901,182,-0.472412109375,0.866455078125,0.013671875,2.79998779296875,-3.68499755859375,-2.410888671875,-0.348876953125,-0.2039794921875,-0.0076904296875,11,0,239
2,24,2,4902,182,-0.45703125,0.873046875,-0.201416015625,4.486083984375,-6.75201416015625,-1.8768310546875,-0.30712890625,-0.03369140625,0.281494140625,11,0,232
2,24,1,4906,183,-0.233642578125,0.95849609375,0.07373046875,0.43487548828125,-5.0811767578125,-0.96893310546875,1.173828125,1.1748046875,-0.3028564453125,11,0,223
2,24,3,4907,183,-0.472412109375,0.866455078125,0.013671875,2.79998779296875,-3.68499755859375,-2.410888671875,-0.348876953125,-0.2039794921875,-0.0076904296875,11,0,151
2,24,2,4908,183,-0.456298828125,0.872802734375,-0.19921875,4.50897216796875,-6.79779052734375,-1.800537109375,-0.31298828125,-0.0277099609375,0.2845458984375,11,0,129
2,24,3,4912,184,-0.472412109375,0.866455078125,0.013671875,2.79998779296875,-3.68499755859375,-2.410888671875,-0.348876953125,-0.2039794921875,-0.0076904296875,11,0,193
2,24,1,4913,184,-0.2392578125,0.960693359375,0.07373046875,0.06866455078125,-3.95965576171875,-1.2969970703125,1.171630859375,1.163330078125,-0.2939453125,11,0,18
2,24,2,4914,184,-0.456298828125,0.872802734375,-0.19921875,4.50897216796875,-6.79779052734375,-1.800537109375,-0.31298828125,-0.0277099609375,0.2845458984375,11,0,139
2,24,2,4918,185,-0.456298828125,0.872802734375,-0.19921875,4.50897216796875,-6.79779052734375,-1.800537109375,-0.31298828125,-0.0277099609375,0.2845458984375,11,0,75
2,24,1,4919,185,-0.2392578125,0.960693359375,0.07373046875,0.06866455078125,-3.95965576171875,-1.2969970703125,1.171630859375,1.163330078125,-0.2939453125,11,0,161
2,24,3,4920,185,-0.46533203125,0.87255859375,0.018798828125,2.79998779296875,-3.70025634765625,-2.44903564453125,-0.3480224609375,-0.206787109375,-0.0059814453125,11,0,29
2,24,3,4925,186,-0.46533203125,0.87255859375,0.018798828125,2.79998779296875,-3.70025634765625,-2.44903564453125,-0.3480224609375,-0.206787109375,-0.0059814453125,11,0,43
2,24,1,4926,186,-0.2392578125,0.960693359375,0.07373046875,0.06866455078125,-3.95965576171875,-1.2969970703125,1.171630859375,1.163330078125,-0.2939453125,11,0,186
2,24,2,4928,186,-0.459716796875,0.869384765625,-0.204833984375,3.96728515625,-6.66046142578125,-1.79290771484375,-0.312255859375,-0.03955078125,0.280029296875,11,0,59
2,24,3,4931,187,-0.46533203125,0.87255859375,0.018798828125,2.79998779296875,-3.70025634765625,-2.44903564453125,-0.3480224609375,-0.206787109375,-0.0059814453125,11,0,173
2,24,1,4932,187,-0.24462890625,0.966796875,0.0771484375,0.1373291015625,-3.41796875,-1.922607421875,1.1724853515625,1.15673828125,-0.2991943359375,11,0,62
2,24,2,4933,187,-0.459716796875,0.869384765625,-0.204833984375,3.96728515625,-6.66046142578125,-1.79290771484375,-0.312255859375,-0.03955078125,0.280029296875,11,0,65
2,24,1,4937,188,-0.24462890625,0.966796875,0.0771484375,0.1373291015625,-3.41796875,-1.922607421875,1.1724853515625,1.15673828125,-0.2991943359375,11,0,91
2,24,2,4938,188,-0.471435546875,0.855712890625,-0.220947265625,3.37982177734375,-6.805419921875,-1.312255859375,-0.3055419921875,-0.0281982421875,0.281005859375,11,0,164
2,24,3,4939,188,-0.473388671875,0.865234375,0.02734375,2.40325927734375,-3.1280517578125,-2.37274169921875,-0.3468017578125,-0.2073974609375,-0.0015869140625,11,0,14
2,24,1,4942,189,-0.24462890625,0.966796875,0.0771484375,0.1373291015625,-3.41796875,-1.922607421875,1.1724853515625,1.15673828125,-0.2991943359375,11,0,82
2,24,2,4943,189,-0.471435546875,0.855712890625,-0.220947265625,3.37982177734375,-6.805419921875,-1.312255859375,-0.3055419921875,-0.0281982421875,0.281005859375,11,0,222
2,24,3,4944,189,-0.473388671875,0.865234375,0.02734375,2.40325927734375,-3.1280517578125,-2.37274169921875,-0.3468017578125,-0.2073974609375,-0.0015869140625,11,0,187
2,24,3,4948,190,-0.474365234375,0.87060546875,0.026611328125,3.44085693359375,-3.7384033203125,-2.06756591796875,-0.3455810546875,-0.2056884765625,-0.0076904296875,11,0,61
2,24,1,4949,190,-0.254150390625,0.973388671875,0.076171875,0.64849853515625,-3.6468505859375,-2.74658203125,1.1717529296875,1.1619873046875,-0.291015625,11,0,8
2,24,2,4950,190,-0.471435546875,0.855712890625,-0.220947265625,3.37982177734375,-6.805419921875,-1.312255859375,-0.3055419921875,-0.0281982421875,0.281005859375,11,0,84
2,24,1,4953,191,-0.254150390625,0.973388671875,0.076171875,0.64849853515625,-3.6468505859375,-2.74658203125,1.1717529296875,1.1619873046875,-0.291015625,11,0,3
2,24,3,4954,191,-0.474365234375,0.87060546875,0.026611328125,3.44085693359375,-3.7384033203125,-2.06756591796875,-0.3455810546875,-0.2056884765625,-0.0076904296875,11,0,69
2,24,2,4955,191,-0.458740234375,0.865234375,-0.22119140625,3.7689208984375,-8.07952880859375,-0.67901611328125,-0.307861328125,-0.0274658203125,0.2806396484375,11,0,117
2,24,3,4958,192,-0.474365234375,0.87060546875,0.026611328125,3.44085693359375,-3.7384033203125,-2.06756591796875,-0.3455810546875,-0.2056884765625,-0.0076904296875,11,0,107
2,24,1,4959,192,-0.254150390625,0.973388671875,0.076171875,0.64849853515625,-3.6468505859375,-2.74658203125,1.1717529296875,1.1619873046875,-0.291015625,11,0,94
2,24,2,4960,192,-0.458740234375,0.865234375,-0.22119140625,3.7689208984375,-8.07952880859375,-0.67901611328125,-0.307861328125,-0.0274658203125,0.2806396484375,11,0,11
2,24,1,4964,193,-0.254638671875,0.966796875,0.087890625,0.84686279296875,-3.5247802734375,-3.6468505859375,1.1702880859375,1.1790771484375,-0.305908203125,11,0,207
2,24,2,4965,193,-0.458740234375,0.865234375,-0.22119140625,3.7689208984375,-8.07952880859375,-0.67901611328125,-0.307861328125,-0.0274658203125,0.2806396484375,11,0,113
2,24,3,4966,193,-0.474365234375,0.87060546875,0.026611328125,3.44085693359375,-3.7384033203125,-2.06756591796875,-0.3455810546875,-0.2056884765625,-0.0076904296875,11,0,50
2,24,1,4969,194,-0.254638671875,0.966796875,0.087890625,0.84686279296875,-3.5247802734375,-3.6468505859375,1.1702880859375,1.1790771484375,-0.305908203125,11,0,50
2,24,2,4970,194,-0.446533203125,0.879150390625,-0.22607421875,3.50189208984375,-9.07135009765625,-0.23651123046875,-0.3060302734375,-0.023193359375,0.28662109375,11,0,139
2,24,3,4971,194,-0.4697265625,0.869140625,0.013427734375,3.86810302734375,-4.119873046875,-1.739501953125,-0.34033203125,-0.2255859375,-0.0081787109375,11,0,223
2,24,1,4975,195,-0.254638671875,0.966796875,0.087890625,0.84686279296875,-3.5247802734375,-3.6468505859375,1.1702880859375,1.1790771484375,-0.305908203125,11,0,129
2,24,2,4976,195,-0.446533203125,0.879150390625,-0.22607421875,3.50189208984375,-9.07135009765625,-0.23651123046875,-0.3060302734375,-0.023193359375,0.28662109375,11,0,132
2,24,3,4977,195,-0.4697265625,0.869140625,0.013427734375,3.86810302734375,-4.119873046875,-1.739501953125,-0.34033203125,-0.2255859375,-0.0081787109375,11,0,208
2,24,2,4983,196,-0.446533203125,0.879150390625,-0.22607421875,3.50189208984375,-9.07135009765625,-0.23651123046875,-0.3060302734375,-0.023193359375,0.28662109375,11,0,89
2,24,1,4984,196,-0.23486328125,0.96435546875,0.081298828125,0.5035400390625,-3.21197509765625,-4.14276123046875,1.17333984375,1.163818359375,-0.3001708984375,11,0,43
2,24,3,4985,196,-0.4638671875,0.872802734375,0.021484375,3.74603271484375,-4.64630126953125,-1.7242431640625,-0.3447265625,-0.22314453125,-0.011962890625,11,0,51
2,24,1,4988,197,-0.23486328125,0.96435546875,0.081298828125,0.5035400390625,-3.21197509765625,-4.14276123046875,1.17333984375,1.163818359375,-0.3001708984375,11,0,235
2,24,3,4990,197,-0.4638671875,0.872802734375,0.021484375,3.74603271484375,-4.64630126953125,-1.7242431640625,-0.3447265625,-0.22314453125,-0.011962890625,11,0,58
2,24,2,4992,197,-0.44140625,0.900634765625,-0.212158203125,3.8604736328125,-10.345458984375,-0.45013427734375,-0.3056640625,-0.0252685546875,0.2811279296875,11,0,220
2,24,1,4995,198,-0.24609375,0.954833984375,0.07666015625,1.57928466796875,-3.88336181640625,-3.94439697265625,1.172607421875,1.1717529296875,-0.299560546875,11,0,127
2,24,3,4996,198,-0.4638671875,0.872802734375,0.021484375,3.74603271484375,-4.64630126953125,-1.7242431640625,-0.3447265625,-0.22314453125,-0.011962890625,11,0,130
2,24,2,4997,198,-0.44140625,0.900634765625,-0.212158203125,3.8604736328125,-10.345458984375,-0.45013427734375,-0.3056640625,-0.0252685546875,0.2811279296875,11,0,234
2,24,1,5001,199,-0.24609375,0.954833984375,0.07666015625,1.57928466796875,-3.88336181640625,-3.94439697265625,1.172607421875,1.1717529296875,-0.299560546875,11,0,225
2,24,3,5002,199,-0.46435546875,0.867919921875,0.02490234375,4.8065185546875,-5.9356689453125,-1.6021728515625,-0.3475341796875,-0.2294921875,-0.004638671875,11,0,156
2,24,2,5003,199,-0.44140625,0.900634765625,-0.212158203125,3.8604736328125,-10.345458984375,-0.45013427734375,-0.3056640625,-0.0252685546875,0.2811279296875,11,0,146
2,24,1,5007,200,-0.24609375,0.954833984375,0.07666015625,1.57928466796875,-3.88336181640625,-3.94439697265625,1.172607421875,1.1717529296875,-0.299560546875,11,0,177
2,24,2,5009,200,-0.41845703125,0.93115234375,-0.214599609375,3.3721923828125,-9.8419189453125,-1.0528564453125,-0.3045654296875,-0.0379638671875,0.2874755859375,11,0,46
2,24,3,5011,200,-0.46435546875,0.867919921875,0.02490234375,4.8065185546875,-5.9356689453125,-1.6021728515625,-0.3475341796875,-0.2294921875,-0.004638671875,11,0,185
2,24,3,5015,201,-0.451416015625,0.873046875,0.016357421875,4.09698486328125,-5.01251220703125,-1.45721435546875,-0.3406982421875,-0.2110595703125,-0.00537109375,11,0,36
2,24,2,5016,201,-0.41845703125,0.93115234375,-0.214599609375,3.3721923828125,-9.8419189453125,-1.0528564453125,-0.3045654296875,-0.0379638671875,0.2874755859375,11,0,121
2,24,1,5017,201,-0.242431640625,0.9404296875,0.085693359375,2.9449462890625,-4.79888916015625,-3.9215087890625,1.1729736328125,1.156005859375,-0.2982177734375,11,0,234
2,24,3,5021,202,-0.451416015625,0.873046875,0.016357421875,4.09698486328125,-5.01251220703125,-1.45721435546875,-0.3406982421875,-0.2110595703125,-0.00537109375,11,0,246
2,24,1,5022,202,-0.242431640625,0.9404296875,0.085693359375,2.9449462890625,-4.79888916015625,-3.9215087890625,1.1729736328125,1.156005859375,-0.2982177734375,11,0,175
2,24,2,5024,202,-0.41845703125,0.93115234375,-0.214599609375,3.3721923828125,-9.8419189453125,-1.0528564453125,-0.3045654296875,-0.0379638671875,0.2874755859375,11,0,108
2,24,3,5027,203,-0.451416015625,0.873046875,0.016357421875,4.09698486328125,-5.01251220703125,-1.45721435546875,-0.3406982421875,-0.2110595703125,-0.00537109375,11,0,58
2,24,1,5028,203,-0.262451171875,0.9306640625,0.09033203125,4.8828125,-6.17218017578125,-4.21905517578125,1.1748046875,1.1751708984375,-0.309326171875,11,0,248
2,24,2,5029,203,-0.40185546875,0.96044921875,-0.25439453125,4.17327880859375,-7.87353515625,-1.59454345703125,-0.30615234375,-0.024658203125,0.28955078125,11,0,37
2,24,2,5032,204,-0.40185546875,0.96044921875,-0.25439453125,4.17327880859375,-7.87353515625,-1.59454345703125,-0.30615234375,-0.024658203125,0.28955078125,11,0,64
2,24,3,5033,204,-0.4716796875,0.86865234375,0.040283203125,3.92913818359375,-4.38690185546875,-1.4190673828125,-0.3427734375,-0.207763671875,-0.0074462890625,11,0,125
2,24,1,5034,204,-0.262451171875,0.9306640625,0.09033203125,4.8828125,-6.17218017578125,-4.21905517578125,1.1748046875,1.1751708984375,-0.309326171875,11,0,84
2,24,2,5036,204,-0.40185546875,0.96044921875,-0.25439453125,4.17327880859375,-7.87353515625,-1.59454345703125,-0.30615234375,-0.024658203125,0.28955078125,11,0,166
2,24,3,5038,205,-0.4716796875,0.86865234375,0.040283203125,3.92913818359375,-4.38690185546875,-1.4190673828125,-0.3427734375,-0.207763671875,-0.0074462890625,11,0,116
2,24,1,5039,205,-0.262451171875,0.9306640625,0.09033203125,4.8828125,-6.17218017578125,-4.21905517578125,1.1748046875,1.1751708984375,-0.309326171875,11,0,46
2,24,2,5040,205,-0.40185546875,0.96044921875,-0.25439453125,4.17327880859375,-7.87353515625,-1.59454345703125,-0.30615234375,-0.024658203125,0.28955078125,11,0,60
2,24,1,5044,206,-0.285400390625,0.92919921875,0.10888671875,7.7667236328125,-9.6282958984375,-4.486083984375,1.1741943359375,1.1771240234375,-0.3023681640625,11,0,238
2,24,2,5045,206,-0.3662109375,0.99267578125,-0.28271484375,-3.59344482421875,2.044677734375,-6.011962890625,-0.2823486328125,-0.02783203125,0.28125,11,0,211
2,24,3,5046,206,-0.4716796875,0.86865234375,0.040283203125,3.92913818359375,-4.38690185546875,-1.4190673828125,-0.3427734375,-0.207763671875,-0.0074462890625,11,0,68
2,24,1,5051,207,-0.285400390625,0.92919921875,0.10888671875,7.7667236328125,-9.6282958984375,-4.486083984375,1.1741943359375,1.1771240234375,-0.3023681640625,11,0,44
2,24,2,5053,207,-0.3662109375,0.99267578125,-0.28271484375,-3.59344482421875,2.044677734375,-6.011962890625,-0.2823486328125,-0.02783203125,0.28125,11,0,62
2,24,3,5054,207,-0.47705078125,0.86865234375,0.02197265625,5.2642822265625,-4.5013427734375,-0.61798095703125,-0.34619140625,-0.2086181640625,-0.0089111328125,11,0,132
2,24,3,5057,208,-0.47705078125,0.86865234375,0.02197265625,5.2642822265625,-4.5013427734375,-0.61798095703125,-0.34619140625,-0.2086181640625,-0.0089111328125,11,0,53
2,24,1,5058,208,-0.285400390625,0.92919921875,0.10888671875,7.7667236328125,-9.6282958984375,-4.486083984375,1.1741943359375,1.1771240234375,-0.3023681640625,11,0,8
2,24,2,5059,208,-0.3662109375,0.99267578125,-0.28271484375,-3.59344482421875,2.044677734375,-6.011962890625,-0.2823486328125,-0.02783203125,0.28125,11,0,53
2,24,3,5065,209,-0.47705078125,0.86865234375,0.02197265625,5.2642822265625,-4.5013427734375,-0.61798095703125,-0.34619140625,-0.2086181640625,-0.0089111328125,11,0,216
2,24,1,5066,209,-0.296630859375,0.923828125,0.11474609375,7.33184814453125,-14.42718505859375,-6.29425048828125,1.17431640625,1.1771240234375,-0.2928466796875,11,0,145
2,24,2,5067,209,-0.374755859375,0.97607421875,-0.2919921875,2.899169921875,1.0833740234375,-4.1046142578125,-0.3052978515625,-0.0284423828125,0.2806396484375,11,0,110
2,24,1,5070,210,-0.296630859375,0.923828125,0.11474609375,7.33184814453125,-14.42718505859375,-6.29425048828125,1.17431640625,1.1771240234375,-0.2928466796875,11,0,29
2,24,3,5071,210,-0.46337890625,0.865966796875,0.0029296875,6.378173828125,-5.85174560546875,0.213623046875,-0.34619140625,-0.208984375,-0.0040283203125,11,0,0
2,24,2,5072,210,-0.374755859375,0.97607421875,-0.2919921875,2.899169921875,1.0833740234375,-4.1046142578125,-0.3052978515625,-0.0284423828125,0.2806396484375,11,0,151
2,24,1,5075,211,-0.316650390625,0.938232421875,0.10009765625,9.2010498046875,-15.289306640625,-8.85009765625,1.1732177734375,1.177490234375,-0.29638671875,11,0,91
2,24,3,5076,211,-0.46337890625,0.865966796875,0.0029296875,6.378173828125,-5.85174560546875,0.213623046875,-0.34619140625,-0.208984375,-0.0040283203125,11,0,181
2,24,2,5078,211,-0.374755859375,0.97607421875,-0.2919921875,2.899169921875,1.0833740234375,-4.1046142578125,-0.3052978515625,-0.0284423828125,0.2806396484375,11,0,36
2,24,1,5082,212,-0.316650390625,0.938232421875,0.10009765625,9.2010498046875,-15.289306640625,-8.85009765625,1.1732177734375,1.177490234375,-0.29638671875,11,0,216
2,24,3,5083,212,-0.46337890625,0.865966796875,0.0029296875,6.378173828125,-5.85174560546875,0.213623046875,-0.34619140625,-0.208984375,-0.0040283203125,11,0,163
2,24,2,5085,212,-0.404296875,1.04541015625,-0.26318359375,8.26263427734375,-7.9803466796875,-3.31878662109375,-0.3056640625,-0.0289306640625,0.2899169921875,11,0,69
2,24,1,5088,213,-0.316650390625,0.938232421875,0.10009765625,9.2010498046875,-15.289306640625,-8.85009765625,1.1732177734375,1.177490234375,-0.29638671875,11,0,242
2,24,3,5089,213,-0.454833984375,0.8623046875,0.00146484375,6.53839111328125,-7.2479248046875,0.8392333984375,-0.346923828125,-0.2095947265625,-0.0062255859375,11,0,161
2,24,2,5090,213,-0.404296875,1.04541015625,-0.26318359375,8.26263427734375,-7.9803466796875,-3.31878662109375,-0.3056640625,-0.0289306640625,0.2899169921875,11,0,51
2,24,2,5095,214,-0.44287109375,1.087646484375,-0.2890625,17.20428466796875,-11.8255615234375,0.1220703125,-0.3045654296875,-0.0418701171875,0.2786865234375,11,0,110
2,24,3,5096,214,-0.454833984375,0.8623046875,0.00146484375,6.53839111328125,-7.2479248046875,0.8392333984375,-0.346923828125,-0.2095947265625,-0.0062255859375,11,0,186
2,24,1,5097,214,-0.30419921875,0.978271484375,0.06494140625,10.040283203125,-11.83319091796875,-10.0555419921875,1.175048828125,1.1768798828125,-0.2939453125,11,0,211
2,24,3,5100,215,-0.454833984375,0.8623046875,0.00146484375,6.53839111328125,-7.2479248046875,0.8392333984375,-0.346923828125,-0.2095947265625,-0.0062255859375,11,0,122
2,24,2,5101,215,-0.44287109375,1.087646484375,-0.2890625,17.20428466796875,-11.8255615234375,0.1220703125,-0.3045654296875,-0.0418701171875,0.2786865234375,11,0,240
2,24,1,5102,215,-0.30419921875,0.978271484375,0.06494140625,10.040283203125,-11.83319091796875,-10.0555419921875,1.175048828125,1.1768798828125,-0.2939453125,11,0,218
2,24,3,5105,216,-0.4638671875,0.87060546875,0.004638671875,6.561279296875,-7.19451904296875,1.220703125,-0.3463134765625,-0.2088623046875,-0.0059814453125,11,0,210
2,24,1,5106,216,-0.30419921875,0.978271484375,0.06494140625,10.040283203125,-11.83319091796875,-10.0555419921875,1.175048828125,1.1768798828125,-0.2939453125,11,0,163
2,24,2,5107,216,-0.44287109375,1.087646484375,-0.2890625,17.20428466796875,-11.8255615234375,0.1220703125,-0.3045654296875,-0.0418701171875,0.2786865234375,11,0,250
2,24,1,5111,217,-0.270263671875,0.963134765625,0.046630859375,7.2021484375,-12.48931884765625,-9.51385498046875,1.17626953125,1.17578125,-0.292236328125,11,0,66
2,24,2,5112,217,-0.451904296875,1.067138671875,-0.2900390625,16.13616943359375,-14.6331787109375,2.02178955078125,-0.3060302734375,-0.0418701171875,0.2872314453125,11,0,85
2,24,3,5113,217,-0.4638671875,0.87060546875,0.004638671875,6.561279296875,-7.19451904296875,1.220703125,-0.3463134765625,-0.2088623046875,-0.0059814453125,11,0,63
2,24,3,5117,218,-0.4638671875,0.87060546875,0.004638671875,6.561279296875,-7.19451904296875,1.220703125,-0.3463134765625,-0.2088623046875,-0.0059814453125,11,0,179
2,24,1,5118,218,-0.270263671875,0.963134765625,0.046630859375,7.2021484375,-12.48931884765625,-9.51385498046875,1.17626953125,1.17578125,-0.292236328125,11,0,89
2,24,2,5119,218,-0.451904296875,1.067138671875,-0.2900390625,16.13616943359375,-14.6331787109375,2.02178955078125,-0.3060302734375,-0.0418701171875,0.2872314453125,11,0,16
2,24,1,5124,219,-0.270263671875,0.963134765625,0.046630859375,7.2021484375,-12.48931884765625,-9.51385498046875,1.17626953125,1.17578125,-0.292236328125,11,0,23
2,24,3,5125,219,-0.4658203125,0.872802734375,0.02587890625,6.23321533203125,-7.31658935546875,1.62506103515625,-0.342529296875,-0.2259521484375,-0.0003662109375,11,0,91
2,24,2,5126,219,-0.451904296875,1.067138671875,-0.2900390625,16.13616943359375,-14.6331787109375,2.02178955078125,-0.3060302734375,-0.0418701171875,0.2872314453125,11,0,151
2,24,3,5129,220,-0.4658203125,0.872802734375,0.02587890625,6.23321533203125,-7.31658935546875,1.62506103515625,-0.342529296875,-0.2259521484375,-0.0003662109375,11,0,132
2,24,1,5130,220,-0.2568359375,0.9267578125,0.07177734375,5.401611328125,-21.1029052734375,-6.32476806640625,1.177490234375,1.17529296875,-0.2882080078125,11,0,106
2,24,2,5131,220,-0.428955078125,1.08642578125,-0.24658203125,4.55474853515625,-17.822265625,0.030517578125,-0.3125,-0.0303955078125,0.282470703125,11,0,16
2,24,2,5135,221,-0.428955078125,1.08642578125,-0.24658203125,4.55474853515625,-17.822265625,0.030517578125,-0.3125,-0.0303955078125,0.282470703125,11,0,208
2,24,1,5136,221,-0.2568359375,0.9267578125,0.07177734375,5.401611328125,-21.1029052734375,-6.32476806640625,1.177490234375,1.17529296875,-0.2882080078125,11,0,101
2,24,3,5138,221,-0.4658203125,0.872802734375,0.02587890625,6.23321533203125,-7.31658935546875,1.62506103515625,-0.342529296875,-0.2259521484375,-0.0003662109375,11,0,49
2,24,1,5141,222,-0.2568359375,0.9267578125,0.07177734375,5.401611328125,-21.1029052734375,-6.32476806640625,1.177490234375,1.17529296875,-0.2882080078125,11,0,83
2,24,2,5142,222,-0.428955078125,1.08642578125,-0.24658203125,4.55474853515625,-17.822265625,0.030517578125,-0.3125,-0.0303955078125,0.282470703125,11,0,90
2,24,3,5143,222,-0.46435546875,0.871826171875,0.0048828125,6.500244140625,-7.38525390625,1.28173828125,-0.34619140625,-0.2298583984375,0.0037841796875,11,0,82
2,24,3,5147,223,-0.46435546875,0.871826171875,0.0048828125,6.500244140625,-7.38525390625,1.28173828125,-0.34619140625,-0.2298583984375,0.0037841796875,11,0,89
2,24,1,5148,223,-0.31298828125,0.889892578125,0.0849609375,9.8724365234375,-28.289794921875,-2.9754638671875,1.1795654296875,1.1820068359375,-0.2952880859375,11,0,129
2,24,2,5149,223,-0.244140625,1.00927734375,-0.148193359375,0.99945068359375,-16.571044921875,15.34271240234375,-0.3095703125,-0.0323486328125,0.27978515625,11,0,144
2,24,1,5152,224,-0.31298828125,0.889892578125,0.0849609375,9.8724365234375,-28.289794921875,-2.9754638671875,1.1795654296875,1.1820068359375,-0.2952880859375,11,0,111
2,24,3,5153,224,-0.46435546875,0.871826171875,0.0048828125,6.500244140625,-7.38525390625,1.28173828125,-0.34619140625,-0.2298583984375,0.0037841796875,11,0,34
2,24,2,5159,224,-0.244140625,1.00927734375,-0.148193359375,0.99945068359375,-16.571044921875,15.34271240234375,-0.3095703125,-0.0323486328125,0.27978515625,11,0,235
2,24,1,5162,225,-0.354736328125,0.858642578125,0.068359375,15.52581787109375,-27.33612060546875,-1.3580322265625,1.1805419921875,1.1788330078125,-0.291015625,11,0,224
2,24,3,5163,225,-0.452392578125,0.877197265625,0.001953125,7.14111328125,-8.2244873046875,0.75531005859375,-0.3509521484375,-0.228271484375,-0.0028076171875,11,0,103
2,24,2,5164,225,0.408203125,0.9248046875,-0.134033203125,7.659912109375,24.22332763671875,80.9326171875,-0.30517578125,-0.0338134765625,0.277099609375,11,0,127
2,24,1,5168,226,-0.354736328125,0.858642578125,0.068359375,15.52581787109375,-27.33612060546875,-1.3580322265625,1.1805419921875,1.1788330078125,-0.291015625,11,0,163
2,24,3,5169,226,-0.452392578125,0.877197265625,0.001953125,7.14111328125,-8.2244873046875,0.75531005859375,-0.3509521484375,-0.228271484375,-0.0028076171875,11,0,36
2,24,2,5170,226,0.408203125,0.9248046875,-0.134033203125,7.659912109375,24.22332763671875,80.9326171875,-0.30517578125,-0.0338134765625,0.277099609375,11,0,218
2,24,3,5174,227,-0.45654296875,0.87939453125,-0.004638671875,6.6680908203125,-8.01849365234375,-0.58746337890625,-0.35107421875,-0.2098388671875,0.0018310546875,11,0,177
2,24,1,5175,227,-0.354736328125,0.858642578125,0.068359375,15.52581787109375,-27.33612060546875,-1.3580322265625,1.1805419921875,1.1788330078125,-0.291015625,11,0,170
2,24,2,5176,227,0.408203125,0.9248046875,-0.134033203125,7.659912109375,24.22332763671875,80.9326171875,-0.30517578125,-0.0338134765625,0.277099609375,11,0,68
2,24,2,5180,228,0.266845703125,1.0244140625,-0.039794921875,18.707275390625,26.79443359375,78.26995849609375,-0.3223876953125,-0.0599365234375,0.2862548828125,11,0,19
2,24,1,5181,228,-0.3232421875,0.8955078125,-0.000244140625,22.75848388671875,-18.7225341796875,1.7852783203125,1.17919921875,1.1796875,-0.290283203125,11,0,142
2,24,3,5182,228,-0.45654296875,0.87939453125,-0.004638671875,6.6680908203125,-8.01849365234375,-0.58746337890625,-0.35107421875,-0.2098388671875,0.0018310546875,11,0,136
2,24,3,5188,229,-0.45654296875,0.87939453125,-0.004638671875,6.6680908203125,-8.01849365234375,-0.58746337890625,-0.35107421875,-0.2098388671875,0.0018310546875,11,0,232
2,24,1,5189,229,-0.3232421875,0.8955078125,-0.000244140625,22.75848388671875,-18.7225341796875,1.7852783203125,1.17919921875,1.1796875,-0.290283203125,11,0,157
2,24,2,5190,229,0.266845703125,1.0244140625,-0.039794921875,18.707275390625,26.79443359375,78.26995849609375,-0.3223876953125,-0.0599365234375,0.2862548828125,11,0,115
2,24,1,5193,230,-0.3232421875,0.8955078125,-0.000244140625,22.75848388671875,-18.7225341796875,1.7852783203125,1.17919921875,1.1796875,-0.290283203125,11,0,218
2,24,3,5194,230,-0.479736328125,0.8837890625,-0.0029296875,5.85174560546875,-9.17816162109375,-1.18255615234375,-0.345947265625,-0.2108154296875,-0.0029296875,11,0,236
2,24,2,5195,230,0.266845703125,1.0244140625,-0.039794921875,18.707275390625,26.79443359375,78.26995849609375,-0.3223876953125,-0.0599365234375,0.2862548828125,11,0,142
2,24,1,5199,231,-0.2900390625,0.9638671875,-0.051025390625,22.36175537109375,-15.869140625,3.71551513671875,1.180419921875,1.1793212890625,-0.289306640625,11,0,12
2,24,3,5200,231,-0.479736328125,0.8837890625,-0.0029296875,5.85174560546875,-9.17816162109375,-1.18255615234375,-0.345947265625,-0.2108154296875,-0.0029296875,11,0,227
2,24,2,5201,231,-0.114990234375,1.1015625,-0.39501953125,21.2860107421875,9.185791015625,92.59033203125,-0.3216552734375,-0.055908203125,0.28662109375,11,0,140
2,24,3,5204,232,-0.479736328125,0.8837890625,-0.0029296875,5.85174560546875,-9.17816162109375,-1.18255615234375,-0.345947265625,-0.2108154296875,-0.0029296875,11,0,192
2,24,1,5205,232,-0.2900390625,0.9638671875,-0.051025390625,22.36175537109375,-15.869140625,3.71551513671875,1.180419921875,1.1793212890625,-0.289306640625,11,0,224
2,24,2,5206,232,-0.114990234375,1.1015625,-0.39501953125,21.2860107421875,9.185791015625,92.59033203125,-0.3216552734375,-0.055908203125,0.28662109375,11,0,102
2,24,1,5209,233,-0.2900390625,0.9638671875,-0.051025390625,22.36175537109375,-15.869140625,3.71551513671875,1.180419921875,1.1793212890625,-0.289306640625,11,0,235
2,24,2,5210,233,-0.114990234375,1.1015625,-0.39501953125,21.2860107421875,9.185791015625,92.59033203125,-0.3216552734375,-0.055908203125,0.28662109375,11,0,109
2,24,3,5211,233,-0.45361328125,0.882568359375,-0.0107421875,4.7454833984375,-10.6048583984375,-1.983642578125,-0.346923828125,-0.2281494140625,0.0010986328125,11,0,170
2,24,3,5215,234,-0.45361328125,0.882568359375,-0.0107421875,4.7454833984375,-10.6048583984375,-1.983642578125,-0.346923828125,-0.2281494140625,0.0010986328125,11,0,38
2,24,1,5216,234,-0.22509765625,1.00830078125,-0.09130859375,16.10565185546875,-18.707275390625,5.79071044921875,1.1796875,1.1781005859375,-0.2916259765625,11,0,138
2,24,2,5217,234,-0.019287109375,1.028076171875,-0.19384765625,-12.451171875,-3.0975341796875,105.8502197265625,-0.3287353515625,-0.0626220703125,0.28125,11,0,105
2,24,1,5221,235,-0.22509765625,1.00830078125,-0.09130859375,16.10565185546875,-18.707275390625,5.79071044921875,1.1796875,1.1781005859375,-0.2916259765625,11,0,240
2,24,3,5222,235,-0.45361328125,0.882568359375,-0.0107421875,4.7454833984375,-10.6048583984375,-1.983642578125,-0.346923828125,-0.2281494140625,0.0010986328125,11,0,197
2,24,2,5224,235,-0.019287109375,1.028076171875,-0.19384765625,-12.451171875,-3.0975341796875,105.8502197265625,-0.3287353515625,-0.0626220703125,0.28125,11,0,62
2,24,2,5228,236,-0.019287109375,1.028076171875,-0.19384765625,-12.451171875,-3.0975341796875,105.8502197265625,-0.3287353515625,-0.0626220703125,0.28125,11,0,42
2,24,1,5229,236,-0.21142578125,0.969482421875,-0.06787109375,9.58251953125,-22.71270751953125,7.39288330078125,1.1746826171875,1.1746826171875,-0.2867431640625,11,0,41
2,24,3,5230,236,-0.454345703125,0.878662109375,-0.011962890625,2.685546875,-9.2315673828125,-2.47955322265625,-0.347900390625,-0.2076416015625,0.000244140625,11,0,120
2,24,1,5234,237,-0.21142578125,0.969482421875,-0.06787109375,9.58251953125,-22.71270751953125,7.39288330078125,1.1746826171875,1.1746826171875,-0.2867431640625,11,0,122
2,24,3,5235,237,-0.454345703125,0.878662109375,-0.011962890625,2.685546875,-9.2315673828125,-2.47955322265625,-0.347900390625,-0.2076416015625,0.000244140625,11,0,88
2,24,2,5237,237,-0.024658203125,0.9345703125,-0.05908203125,-18.71490478515625,-21.11053466796875,120.574951171875,-0.3319091796875,-0.076416015625,0.280517578125,11,0,125
2,24,1,5240,238,-0.21142578125,0.969482421875,-0.06787109375,9.58251953125,-22.71270751953125,7.39288330078125,1.1746826171875,1.1746826171875,-0.2867431640625,11,0,168
2,24,2,5241,238,-0.024658203125,0.9345703125,-0.05908203125,-18.71490478515625,-21.11053466796875,120.574951171875,-0.3319091796875,-0.076416015625,0.280517578125,11,0,58
2,24,3,5242,238,-0.449951171875,0.87744140625,0.006103515625,1.1138916015625,-6.7596435546875,-3.02886962890625,-0.34765625,-0.2122802734375,-0.0062255859375,11,0,191
2,24,2,5246,239,-0.024658203125,0.9345703125,-0.05908203125,-18.71490478515625,-21.11053466796875,120.574951171875,-0.3319091796875,-0.076416015625,0.280517578125,11,0,51
2,24,1,5247,239,-0.239013671875,0.900390625,0.00537109375,9.918212890625,-20.56121826171875,7.25555419921875,1.1748046875,1.159423828125,-0.2781982421875,11,0,9
2,24,3,5248,239,-0.449951171875,0.87744140625,0.006103515625,1.1138916015625,-6.7596435546875,-3.02886962890625,-0.34765625,-0.2122802734375,-0.0062255859375,11,0,75
2,24,1,5252,240,-0.239013671875,0.900390625,0.00537109375,9.918212890625,-20.56121826171875,7.25555419921875,1.1748046875,1.159423828125,-0.2781982421875,11,0,202
2,24,3,5253,240,-0.449951171875,0.87744140625,0.006103515625,1.1138916015625,-6.7596435546875,-3.02886962890625,-0.34765625,-0.2122802734375,-0.0062255859375,11,0,188
2,24,2,5254,240,-0.000244140625,0.90771484375,-0.009765625,-23.223876953125,-23.73504638671875,129.93621826171875,-0.337646484375,-0.091796875,0.2694091796875,11,0,75
2,24,1,5257,241,-0.239013671875,0.900390625,0.00537109375,9.918212890625,-20.56121826171875,7.25555419921875,1.1748046875,1.159423828125,-0.2781982421875,11,0,123
2,24,2,5258,241,-0.000244140625,0.90771484375,-0.009765625,-23.223876953125,-23.73504638671875,129.93621826171875,-0.337646484375,-0.091796875,0.2694091796875,11,0,64
2,24,3,5259,241,-0.447998046875,0.881591796875,-0.000244140625,1.04522705078125,-6.9580078125,-3.7384033203125,-0.34814453125,-0.20556640625,-0.0035400390625,11,0,23
2,24,1,5263,242,-0.22314453125,0.893310546875,0.08203125,12.20703125,-13.7481689453125,6.81304931640625,1.1766357421875,1.1656494140625,-0.281005859375,11,0,252
2,24,3,5264,242,-0.447998046875,0.881591796875,-0.000244140625,1.04522705078125,-6.9580078125,-3.7384033203125,-0.34814453125,-0.20556640625,-0.0035400390625,11,0,238
2,24,2,5265,242,-0.000244140625,0.90771484375,-0.009765625,-23.223876953125,-23.73504638671875,129.93621826171875,-0.337646484375,-0.091796875,0.2694091796875,11,0,185
2,24,1,5269,243,-0.22314453125,0.893310546875,0.08203125,12.20703125,-13.7481689453125,6.81304931640625,1.1766357421875,1.1656494140625,-0.281005859375,11,0,243
2,24,2,5270,243,-0.0107421875,0.82763671875,0.034912109375,-18.9056396484375,-18.6920166015625,131.134033203125,-0.3470458984375,-0.1094970703125,0.2786865234375,11,0,222
2,24,3,5271,243,-0.447998046875,0.881591796875,-0.000244140625,1.04522705078125,-6.9580078125,-3.7384033203125,-0.34814453125,-0.20556640625,-0.0035400390625,11,0,231
2,24,1,5275,244,-0.22314453125,0.893310546875,0.08203125,12.20703125,-13.7481689453125,6.81304931640625,1.1766357421875,1.1656494140625,-0.281005859375,11,0,95
2,24,3,5277,244,-0.47802734375,0.8828125,-0.002685546875,0.640869140625,-10.76507568359375,-5.035400390625,-0.3475341796875,-0.2305908203125,-0.0107421875,11,0,107
2,24,2,5278,244,-0.0107421875,0.82763671875,0.034912109375,-18.9056396484375,-18.6920166015625,131.134033203125,-0.3470458984375,-0.1094970703125,0.2786865234375,11,0,231
2,24,3,5282,245,-0.47802734375,0.8828125,-0.002685546875,0.640869140625,-10.76507568359375,-5.035400390625,-0.3475341796875,-0.2305908203125,-0.0107421875,11,0,29
2,24,1,5284,245,-0.193115234375,0.962890625,0.144775390625,18.15032958984375,-2.72369384765625,3.6163330078125,1.1734619140625,1.1800537109375,-0.2806396484375,11,0,169
2,24,2,5285,245,-0.0107421875,0.82763671875,0.034912109375,-18.9056396484375,-18.6920166015625,131.134033203125,-0.3470458984375,-0.1094970703125,0.2786865234375,11,0,119
2,24,3,5289,246,-0.444091796875,0.86181640625,0.03076171875,0.67901611328125,-11.28387451171875,-5.40924072265625,-0.346435546875,-0.228759765625,-0.0047607421875,11,0,42
2,24,2,5290,246,-0.060791015625,0.7958984375,0.022705078125,-16.48712158203125,-14.54925537109375,126.50299072265625,-0.3602294921875,-0.1053466796875,0.274658203125,11,0,143
2,24,1,5292,246,-0.193115234375,0.962890625,0.144775390625,18.15032958984375,-2.72369384765625,3.6163330078125,1.1734619140625,1.1800537109375,-0.2806396484375,11,0,8
2,24,1,5296,247,-0.193115234375,0.962890625,0.144775390625,18.15032958984375,-2.72369384765625,3.6163330078125,1.1734619140625,1.1800537109375,-0.2806396484375,11,0,146
2,24,3,5297,247,-0.444091796875,0.86181640625,0.03076171875,0.67901611328125,-11.28387451171875,-5.40924072265625,-0.346435546875,-0.228759765625,-0.0047607421875,11,0,86
2,24,2,5298,247,-0.060791015625,0.7958984375,0.022705078125,-16.48712158203125,-14.54925537109375,126.50299072265625,-0.3602294921875,-0.1053466796875,0.274658203125,11,0,243
2,24,3,5302,248,-0.444091796875,0.86181640625,0.03076171875,0.67901611328125,-11.28387451171875,-5.40924072265625,-0.346435546875,-0.228759765625,-0.0047607421875,11,0,188
2,24,1,5303,248,-0.16943359375,1.012451171875,0.17236328125,16.04461669921875,6.21795654296875,-2.17437744140625,1.1773681640625,1.16357421875,-0.2735595703125,11,0,41
2,24,2,5304,248,-0.114990234375,0.831787109375,0.032958984375,-16.38031005859375,-9.4146728515625,123.2757568359375,-0.370361328125,-0.1142578125,0.2725830078125,11,0,196
2,24,3,5307,249,-0.450439453125,0.870849609375,0.022216796875,1.54876708984375,-7.7667236328125,-5.66864013671875,-0.3458251953125,-0.208984375,-0.0072021484375,11,0,73
2,24,2,5308,249,-0.114990234375,0.831787109375,0.032958984375,-16.38031005859375,-9.4146728515625,123.2757568359375,-0.370361328125,-0.1142578125,0.2725830078125,11,0,4
2,24,1,5309,249,-0.16943359375,1.012451171875,0.17236328125,16.04461669921875,6.21795654296875,-2.17437744140625,1.1773681640625,1.16357421875,-0.2735595703125,11,0,183
2,24,1,5313,250,-0.16943359375,1.012451171875,0.17236328125,16.04461669921875,6.21795654296875,-2.17437744140625,1.1773681640625,1.16357421875,-0.2735595703125,11,0,14
2,24,3,5314,250,-0.450439453125,0.870849609375,0.022216796875,1.54876708984375,-7.7667236328125,-5.66864013671875,-0.3458251953125,-0.208984375,-0.0072021484375,11,0,172
2,24,2,5316,250,-0.114990234375,0.831787109375,0.032958984375,-16.38031005859375,-9.4146728515625,123.2757568359375,-0.370361328125,-0.1142578125,0.2725830078125,11,0,91
2,24,3,5320,251,-0.450439453125,0.870849609375,0.022216796875,1.54876708984375,-7.7667236328125,-5.66864013671875,-0.3458251953125,-0.208984375,-0.0072021484375,11,0,50
2,24,1,5321,251,-0.192138671875,1.005859375,0.124755859375,5.462646484375,5.5389404296875,-5.47027587890625,1.1754150390625,1.16064453125,-0.2725830078125,11,0,174
2,24,2,5322,251,-0.146240234375,0.82958984375,0.025390625,-17.5323486328125,-3.48663330078125,114.35699462890625,-0.3834228515625,-0.1180419921875,0.2684326171875,11,0,51
2,24,3,5326,252,-0.470947265625,0.876220703125,0.0283203125,2.5787353515625,-6.988525390625,-5.76019287109375,-0.34765625,-0.219482421875,-0.0054931640625,11,0,20
2,24,1,5327,252,-0.192138671875,1.005859375,0.124755859375,5.462646484375,5.5389404296875,-5.47027587890625,1.1754150390625,1.16064453125,-0.2725830078125,11,0,201
2,24,2,5328,252,-0.146240234375,0.82958984375,0.025390625,-17.5323486328125,-3.48663330078125,114.35699462890625,-0.3834228515625,-0.1180419921875,0.2684326171875,11,0,232
2,24,1,5332,253,-0.208740234375,1.00634765625,0.0576171875,-1.42669677734375,-3.0364990234375,-6.23321533203125,1.1728515625,1.176513671875,-0.273681640625,11,0,34
2,24,2,5333,253,-0.146240234375,0.82958984375,0.025390625,-17.5323486328125,-3.48663330078125,114.35699462890625,-0.3834228515625,-0.1180419921875,0.2684326171875,11,0,146
2,24,3,5334,253,-0.470947265625,0.876220703125,0.0283203125,2.5787353515625,-6.988525390625,-5.76019287109375,-0.34765625,-0.219482421875,-0.0054931640625,11,0,104
2,24,3,5337,254,-0.470947265625,0.876220703125,0.0283203125,2.5787353515625,-6.988525390625,-5.76019287109375,-0.34765625,-0.219482421875,-0.0054931640625,11,0,230
2,24,1,5338,254,-0.208740234375,1.00634765625,0.0576171875,-1.42669677734375,-3.0364990234375,-6.23321533203125,1.1728515625,1.176513671875,-0.273681640625,11,0,22
2,24,2,5339,254,-0.1845703125,0.80615234375,-0.003173828125,-16.44134521484375,1.1444091796875,105.04150390625,-0.3929443359375,-0.127197265625,0.2705078125,11,0,26
2,24,1,5343,255,-0.208740234375,1.00634765625,0.0576171875,-1.42669677734375,-3.0364990234375,-6.23321533203125,1.1728515625,1.176513671875,-0.273681640625,11,0,108
2,24,3,5345,255,-0.475341796875,0.8759765625,0.0361328125,1.9378662109375,-6.103515625,-5.53131103515625,-0.343994140625,-0.2220458984375,-0.001953125,11,0,105
2,24,2,5346,255,-0.1845703125,0.80615234375,-0.003173828125,-16.44134521484375,1.1444091796875,105.04150390625,-0.3929443359375,-0.127197265625,0.2705078125,11,0,249
2,24,1,5351,256,-0.229736328125,1.013427734375,0.030517578125,-2.96783447265625,-6.8359375,-3.31878662109375,1.17236328125,1.181640625,-0.275146484375,11,0,248
2,24,3,5352,256,-0.475341796875,0.8759765625,0.0361328125,1.9378662109375,-6.103515625,-5.53131103515625,-0.343994140625,-0.2220458984375,-0.001953125,11,0,16
2,24,2,5353,256,-0.1845703125,0.80615234375,-0.003173828125,-16.44134521484375,1.1444091796875,105.04150390625,-0.3929443359375,-0.127197265625,0.2705078125,11,0,243
2,24,3,5357,257,-0.478271484375,0.875732421875,0.026123046875,2.3193359375,-5.59234619140625,-4.608154296875,-0.3480224609375,-0.206787109375,-0.004638671875,11,0,29
2,24,2,5358,257,-0.238037109375,0.815185546875,-0.09326171875,-12.77923583984375,10.1776123046875,95.80230712890625,-0.398681640625,-0.1405029296875,0.26513671875,11,0,79
2,24,1,5359,257,-0.229736328125,1.013427734375,0.030517578125,-2.96783447265625,-6.8359375,-3.31878662109375,1.17236328125,1.181640625,-0.275146484375,11,0,21
2,24,3,5363,258,-0.478271484375,0.875732421875,0.026123046875,2.3193359375,-5.59234619140625,-4.608154296875,-0.3480224609375,-0.206787109375,-0.004638671875,11,0,184
2,24,1,5364,258,-0.229736328125,1.013427734375,0.030517578125,-2.96783447265625,-6.8359375,-3.31878662109375,1.17236328125,1.181640625,-0.275146484375,11,0,236
2,24,2,5365,258,-0.238037109375,0.815185546875,-0.09326171875,-12.77923583984375,10.1776123046875,95.80230712890625,-0.398681640625,-0.1405029296875,0.26513671875,11,0,182
2,24,1,5369,259,-0.258056640625,1.014404296875,-0.002685546875,-1.71661376953125,-5.340576171875,-0.06866455078125,1.17431640625,1.1793212890625,-0.2740478515625,11,0,110
2,24,3,5370,259,-0.478271484375,0.875732421875,0.026123046875,2.3193359375,-5.59234619140625,-4.608154296875,-0.3480224609375,-0.206787109375,-0.004638671875,11,0,239
2,24,2,5371,259,-0.238037109375,0.815185546875,-0.09326171875,-12.77923583984375,10.1776123046875,95.80230712890625,-0.398681640625,-0.1405029296875,0.26513671875,11,0,206
2,24,1,5374,260,-0.258056640625,1.014404296875,-0.002685546875,-1.71661376953125,-5.340576171875,-0.06866455078125,1.17431640625,1.1793212890625,-0.2740478515625,11,0,179
2,24,3,5375,260,-0.481201171875,0.877685546875,0.022705078125,1.54876708984375,-2.15911865234375,-2.8228759765625,-0.3494873046875,-0.2047119140625,0.0035400390625,11,0,11
2,24,2,5376,260,-0.36083984375,0.726318359375,-0.105712890625,-13.916015625,11.17706298828125,82.1685791015625,-0.404296875,-0.136962890625,0.2606201171875,11,0,253
2,24,3,5380,261,-0.481201171875,0.877685546875,0.022705078125,1.54876708984375,-2.15911865234375,-2.8228759765625,-0.3494873046875,-0.2047119140625,0.0035400390625,11,0,123
2,24,1,5381,261,-0.258056640625,1.014404296875,-0.002685546875,-1.71661376953125,-5.340576171875,-0.06866455078125,1.17431640625,1.1793212890625,-0.2740478515625,11,0,195
2,24,2,5382,261,-0.36083984375,0.726318359375,-0.105712890625,-13.916015625,11.17706298828125,82.1685791015625,-0.404296875,-0.136962890625,0.2606201171875,11,0,78
2,24,2,5386,262,-0.36083984375,0.726318359375,-0.105712890625,-13.916015625,11.17706298828125,82.1685791015625,-0.404296875,-0.136962890625,0.2606201171875,11,0,9
2,24,1,5387,262,-0.296875,1.01611328125,-0.017578125,-1.68609619140625,-3.2196044921875,1.06048583984375,1.176513671875,1.1795654296875,-0.28955078125,11,0,180
2,24,3,5388,262,-0.481201171875,0.877685546875,0.022705078125,1.54876708984375,-2.15911865234375,-2.8228759765625,-0.3494873046875,-0.2047119140625,0.0035400390625,11,0,218
2,24,2,5393,263,-0.49560546875,0.682861328125,-0.178466796875,-10.55908203125,1.21307373046875,68.50433349609375,-0.416748046875,-0.1539306640625,0.2607421875,11,0,29
2,24,1,5394,263,-0.296875,1.01611328125,-0.017578125,-1.68609619140625,-3.2196044921875,1.06048583984375,1.176513671875,1.1795654296875,-0.28955078125,11,0,114
2,24,3,5395,263,-0.48486328125,0.864990234375,0.022216796875,0.701904296875,-1.83868408203125,-1.35040283203125,-0.3487548828125,-0.20703125,-0.00634765625,11,0,4
2,24,2,5398,264,-0.49560546875,0.682861328125,-0.178466796875,-10.55908203125,1.21307373046875,68.50433349609375,-0.416748046875,-0.1539306640625,0.2607421875,11,0,247
2,24,1,5399,264,-0.30126953125,1.01904296875,-0.00732421875,-5.5084228515625,-2.93731689453125,0.67138671875,1.177978515625,1.1771240234375,-0.2850341796875,11,0,243
2,24,3,5400,264,-0.48486328125,0.864990234375,0.022216796875,0.701904296875,-1.83868408203125,-1.35040283203125,-0.3487548828125,-0.20703125,-0.00634765625,11,0,195
2,24,1,5404,265,-0.30126953125,1.01904296875,-0.00732421875,-5.5084228515625,-2.93731689453125,0.67138671875,1.177978515625,1.1771240234375,-0.2850341796875,11,0,215
2,24,3,5405,265,-0.48486328125,0.864990234375,0.022216796875,0.701904296875,-1.83868408203125,-1.35040283203125,-0.3487548828125,-0.20703125,-0.00634765625,11,0,185
2,24,2,5406,265,-0.49560546875,0.682861328125,-0.178466796875,-10.55908203125,1.21307373046875,68.50433349609375,-0.416748046875,-0.1539306640625,0.2607421875,11,0,26
2,24,1,5410,266,-0.30126953125,1.01904296875,-0.00732421875,-5.5084228515625,-2.93731689453125,0.67138671875,1.177978515625,1.1771240234375,-0.2850341796875,11,0,87
2,24,2,5411,266,-0.42138671875,0.617919921875,-0.1572265625,-19.43206787109375,-6.378173828125,63.385009765625,-0.429931640625,-0.146240234375,0.267333984375,11,0,15
2,24,3,5413,266,-0.477294921875,0.871337890625,0.020263671875,0.518798828125,-1.35040283203125,0.32806396484375,-0.3477783203125,-0.20556640625,-0.0028076171875,11,0,153
2,24,1,5418,267,-0.282958984375,1.04443359375,0.02978515625,-15.289306640625,-7.843017578125,-0.457763671875,1.1754150390625,1.16015625,-0.2796630859375,11,0,223
2,24,3,5419,267,-0.477294921875,0.871337890625,0.020263671875,0.518798828125,-1.35040283203125,0.32806396484375,-0.3477783203125,-0.20556640625,-0.0028076171875,11,0,225
2,24,2,5420,267,-0.42138671875,0.617919921875,-0.1572265625,-19.43206787109375,-6.378173828125,63.385009765625,-0.429931640625,-0.146240234375,0.267333984375,11,0,205
2,24,1,5423,268,-0.282958984375,1.04443359375,0.02978515625,-15.289306640625,-7.843017578125,-0.457763671875,1.1754150390625,1.16015625,-0.2796630859375,11,0,113
2,24,3,5424,268,-0.4443359375,0.86669921875,0.0166015625,1.10626220703125,-3.204345703125,0.63323974609375,-0.3509521484375,-0.2083740234375,-0.00830078125,11,0,73
2,24,2,5425,268,-0.25732421875,0.61962890625,-0.156494140625,-26.3671875,-16.39556884765625,60.97412109375,-0.4296875,-0.1497802734375,0.261962890625,11,0,238
2,24,1,5429,269,-0.282958984375,1.04443359375,0.02978515625,-15.289306640625,-7.843017578125,-0.457763671875,1.1754150390625,1.16015625,-0.2796630859375,11,0,126
2,24,2,5430,269,-0.25732421875,0.61962890625,-0.156494140625,-26.3671875,-16.39556884765625,60.97412109375,-0.4296875,-0.1497802734375,0.261962890625,11,0,231
2,24,3,5431,269,-0.4443359375,0.86669921875,0.0166015625,1.10626220703125,-3.204345703125,0.63323974609375,-0.3509521484375,-0.2083740234375,-0.00830078125,11,0,64
2,24,1,5434,270,-0.19873046875,0.97900390625,0.0751953125,-23.8800048828125,-9.918212890625,0.78582763671875,1.1749267578125,1.17724609375,-0.25244140625,11,0,52
2,24,3,5435,270,-0.4443359375,0.86669921875,0.0166015625,1.10626220703125,-3.204345703125,0.63323974609375,-0.3509521484375,-0.2083740234375,-0.00830078125,11,0,7
2,24,2,5436,270,-0.25732421875,0.61962890625,-0.156494140625,-26.3671875,-16.39556884765625,60.97412109375,-0.4296875,-0.1497802734375,0.261962890625,11,0,53
2,24,1,5441,271,-0.19873046875,0.97900390625,0.0751953125,-23.8800048828125,-9.918212890625,0.78582763671875,1.1749267578125,1.17724609375,-0.25244140625,11,0,238
2,24,3,5442,271,-0.438720703125,0.881103515625,0.038330078125,1.06048583984375,-3.204345703125,-0.6256103515625,-0.3470458984375,-0.2069091796875,-0.01953125,11,0,93
2,24,2,5443,271,-0.044677734375,0.723876953125,-0.083251953125,-29.48760986328125,-16.62445068359375,62.713623046875,-0.441650390625,-0.1483154296875,0.2608642578125,11,0,64
2,24,3,5446,272,-0.438720703125,0.881103515625,0.038330078125,1.06048583984375,-3.204345703125,-0.6256103515625,-0.3470458984375,-0.2069091796875,-0.01953125,11,0,16
2,24,1,5447,272,-0.19873046875,0.97900390625,0.0751953125,-23.8800048828125,-9.918212890625,0.78582763671875,1.1749267578125,1.17724609375,-0.25244140625,11,0,208
2,24,2,5448,272,-0.044677734375,0.723876953125,-0.083251953125,-29.48760986328125,-16.62445068359375,62.713623046875,-0.441650390625,-0.1483154296875,0.2608642578125,11,0,233
2,24,2,5451,273,-0.044677734375,0.723876953125,-0.083251953125,-29.48760986328125,-16.62445068359375,62.713623046875,-0.441650390625,-0.1483154296875,0.2608642578125,11,0,6
2,24,3,5452,273,-0.438720703125,0.881103515625,0.038330078125,1.06048583984375,-3.204345703125,-0.6256103515625,-0.3470458984375,-0.2069091796875,-0.01953125,11,0,142
2,24,1,5453,273,-0.148193359375,0.873779296875,0.2021484375,-23.00262451171875,-7.4005126953125,0.5645751953125,1.1756591796875,1.1707763671875,-0.275634765625,11,0,205
2,24,2,5457,274,0.0146484375,0.68359375,-0.015869140625,-23.90289306640625,-18.6767578125,57.9986572265625,-0.4365234375,-0.151123046875,0.2532958984375,11,0,198
2,24,3,5458,274,-0.438720703125,0.881103515625,0.038330078125,1.06048583984375,-3.204345703125,-0.6256103515625,-0.3470458984375,-0.2069091796875,-0.01953125,11,0,43
2,24,1,5459,274,-0.148193359375,0.873779296875,0.2021484375,-23.00262451171875,-7.4005126953125,0.5645751953125,1.1756591796875,1.1707763671875,-0.275634765625,11,0,104
2,24,3,5463,275,-0.451416015625,0.876708984375,0.058349609375,1.25885009765625,-2.26593017578125,-2.3040771484375,-0.347412109375,-0.2158203125,-0.0009765625,11,0,170
2,24,2,5464,275,0.0146484375,0.68359375,-0.015869140625,-23.90289306640625,-18.6767578125,57.9986572265625,-0.4365234375,-0.151123046875,0.2532958984375,11,0,145
2,24,1,5465,275,-0.148193359375,0.873779296875,0.2021484375,-23.00262451171875,-7.4005126953125,0.5645751953125,1.1756591796875,1.1707763671875,-0.275634765625,11,0,246
2,24,2,5468,276,0.0146484375,0.68359375,-0.015869140625,-23.90289306640625,-18.6767578125,57.9986572265625,-0.4365234375,-0.151123046875,0.2532958984375,11,0,133
2,24,3,5469,276,-0.451416015625,0.876708984375,0.058349609375,1.25885009765625,-2.26593017578125,-2.3040771484375,-0.347412109375,-0.2158203125,-0.0009765625,11,0,224
2,24,1,5470,276,-0.15380859375,0.86083984375,0.31298828125,-11.7034912109375,-5.3253173828125,3.50189208984375,1.1727294921875,1.1611328125,-0.291259765625,11,0,110
2,24,1,5474,277,-0.15380859375,0.86083984375,0.31298828125,-11.7034912109375,-5.3253173828125,3.50189208984375,1.1727294921875,1.1611328125,-0.291259765625,11,0,209
2,24,2,5475,277,-0.05078125,0.76611328125,0.0166015625,-20.4620361328125,-11.199951171875,56.46514892578125,-0.448486328125,-0.1561279296875,0.2567138671875,11,0,134
2,24,3,5476,277,-0.451416015625,0.876708984375,0.058349609375,1.25885009765625,-2.26593017578125,-2.3040771484375,-0.347412109375,-0.2158203125,-0.0009765625,11,0,3
2,24,2,5480,278,-0.05078125,0.76611328125,0.0166015625,-20.4620361328125,-11.199951171875,56.46514892578125,-0.448486328125,-0.1561279296875,0.2567138671875,11,0,238
2,24,3,5481,278,-0.462646484375,0.874755859375,0.04541015625,2.12860107421875,-1.57928466796875,-2.98309326171875,-0.346435546875,-0.2066650390625,-0.0128173828125,11,0,201
2,24,1,5482,278,-0.15380859375,0.86083984375,0.31298828125,-11.7034912109375,-5.3253173828125,3.50189208984375,1.1727294921875,1.1611328125,-0.291259765625,11,0,112
2,24,1,5486,279,-0.187255859375,0.914306640625,0.224853515625,-0.5645751953125,-8.27789306640625,6.1187744140625,1.170654296875,1.17724609375,-0.29296875,11,0,215
2,24,3,5487,279,-0.462646484375,0.874755859375,0.04541015625,2.12860107421875,-1.57928466796875,-2.98309326171875,-0.346435546875,-0.2066650390625,-0.0128173828125,11,0,122
2,24,2,5488,279,-0.05078125,0.76611328125,0.0166015625,-20.4620361328125,-11.199951171875,56.46514892578125,-0.448486328125,-0.1561279296875,0.2567138671875,11,0,146
2,24,1,5492,280,-0.187255859375,0.914306640625,0.224853515625,-0.5645751953125,-8.27789306640625,6.1187744140625,1.170654296875,1.17724609375,-0.29296875,11,0,59
2,24,2,5494,280,-0.041259765625,0.727294921875,0.08740234375,-25.5889892578125,-4.09698486328125,58.72344970703125,-0.4537353515625,-0.1588134765625,0.246826171875,11,0,85
2,24,3,5495,280,-0.462646484375,0.874755859375,0.04541015625,2.12860107421875,-1.57928466796875,-2.98309326171875,-0.346435546875,-0.2066650390625,-0.0128173828125,11,0,229
2,24,1,5498,281,-0.187255859375,0.914306640625,0.224853515625,-0.5645751953125,-8.27789306640625,6.1187744140625,1.170654296875,1.17724609375,-0.29296875,11,0,67
2,24,3,5500,281,-0.48193359375,0.8759765625,0.048095703125,2.2125244140625,0.5645751953125,-2.76947021484375,-0.3482666015625,-0.2060546875,-0.0113525390625,11,0,6
2,24,2,5502,281,-0.041259765625,0.727294921875,0.08740234375,-25.5889892578125,-4.09698486328125,58.72344970703125,-0.4537353515625,-0.1588134765625,0.246826171875,11,0,184
2,24,1,5506,282,-0.21875,1.022216796875,0.0,7.99560546875,-12.93182373046875,10.62774658203125,1.1728515625,1.1636962890625,-0.2857666015625,11,0,167
2,24,2,5507,282,-0.041259765625,0.727294921875,0.08740234375,-25.5889892578125,-4.09698486328125,58.72344970703125,-0.4537353515625,-0.1588134765625,0.246826171875,11,0,47
2,24,3,5508,282,-0.48193359375,0.8759765625,0.048095703125,2.2125244140625,0.5645751953125,-2.76947021484375,-0.3482666015625,-0.2060546875,-0.0113525390625,11,0,205
2,24,1,5511,283,-0.21875,1.022216796875,0.0,7.99560546875,-12.93182373046875,10.62774658203125,1.1728515625,1.1636962890625,-0.2857666015625,11,0,221
2,24,2,5512,283,-0.055908203125,0.79248046875,0.12255859375,-26.0467529296875,3.34930419921875,54.28314208984375,-0.459228515625,-0.1593017578125,0.244384765625,11,0,49
2,24,3,5513,283,-0.48974609375,0.87255859375,0.036376953125,3.34930419921875,0.89263916015625,-1.57928466796875,-0.344970703125,-0.2066650390625,-0.016357421875,11,0,108
2,24,1,5516,284,-0.2177734375,1.099853515625,-0.12060546875,3.0517578125,-11.37542724609375,12.01629638671875,1.1728515625,1.18017578125,-0.2862548828125,11,0,61
2,24,2,5517,284,-0.055908203125,0.79248046875,0.12255859375,-26.0467529296875,3.34930419921875,54.28314208984375,-0.459228515625,-0.1593017578125,0.244384765625,11,0,159
2,24,3,5518,284,-0.48974609375,0.87255859375,0.036376953125,3.34930419921875,0.89263916015625,-1.57928466796875,-0.344970703125,-0.2066650390625,-0.016357421875,11,0,177
2,24,1,5522,285,-0.2177734375,1.099853515625,-0.12060546875,3.0517578125,-11.37542724609375,12.01629638671875,1.1728515625,1.18017578125,-0.2862548828125,11,0,212
2,24,3,5523,285,-0.48974609375,0.87255859375,0.036376953125,3.34930419921875,0.89263916015625,-1.57928466796875,-0.344970703125,-0.2066650390625,-0.016357421875,11,0,145
2,24,2,5524,285,-0.055908203125,0.79248046875,0.12255859375,-26.0467529296875,3.34930419921875,54.28314208984375,-0.459228515625,-0.1593017578125,0.244384765625,11,0,89
2,24,3,5528,286,-0.493408203125,0.8916015625,0.060546875,3.60870361328125,0.42724609375,-0.4425048828125,-0.347900390625,-0.2093505859375,-0.0079345703125,11,0,237
2,24,1,5529,286,-0.2177734375,1.099853515625,-0.12060546875,3.0517578125,-11.37542724609375,12.01629638671875,1.1728515625,1.18017578125,-0.2862548828125,11,0,188
2,24,2,5530,286,-0.501220703125,2.852294921875,-1.239501953125,-5.24139404296875,25.52032470703125,75.66070556640625,-0.4637451171875,-0.1600341796875,0.24658203125,11,0,235
2,24,1,5533,287,-0.2548828125,1.10595703125,-0.0771484375,-15.3961181640625,-0.57220458984375,9.3994140625,1.1702880859375,1.1663818359375,-0.28271484375,11,0,15
2,24,2,5534,287,-0.501220703125,2.852294921875,-1.239501953125,-5.24139404296875,25.52032470703125,75.66070556640625,-0.4637451171875,-0.1600341796875,0.24658203125,11,0,43
2,24,3,5535,287,-0.493408203125,0.8916015625,0.060546875,3.60870361328125,0.42724609375,-0.4425048828125,-0.347900390625,-0.2093505859375,-0.0079345703125,11,0,228
2,24,1,5539,288,-0.2548828125,1.10595703125,-0.0771484375,-15.3961181640625,-0.57220458984375,9.3994140625,1.1702880859375,1.1663818359375,-0.28271484375,11,0,146
2,24,3,5540,288,-0.493408203125,0.8916015625,0.060546875,3.60870361328125,0.42724609375,-0.4425048828125,-0.347900390625,-0.2093505859375,-0.0079345703125,11,0,37
2,24,2,5541,288,-0.501220703125,2.852294921875,-1.239501953125,-5.24139404296875,25.52032470703125,75.66070556640625,-0.4637451171875,-0.1600341796875,0.24658203125,11,0,234
2,24,1,5545,289,-0.2548828125,1.10595703125,-0.0771484375,-15.3961181640625,-0.57220458984375,9.3994140625,1.1702880859375,1.1663818359375,-0.28271484375,11,0,12
2,24,3,5546,289,-0.512939453125,0.921875,0.047607421875,5.7525634765625,-2.5634765625,-0.60272216796875,-0.350341796875,-0.2108154296875,-0.003173828125,11,0,243
2,24,2,5547,289,2.975341796875,3.052490234375,-2.77490234375,26.275634765625,124.481201171875,68.26019287109375,-0.4952392578125,-0.1522216796875,0.2550048828125,11,0,151
2,24,3,5551,290,-0.512939453125,0.921875,0.047607421875,5.7525634765625,-2.5634765625,-0.60272216796875,-0.350341796875,-0.2108154296875,-0.003173828125,11,0,197
2,24,2,5552,290,2.975341796875,3.052490234375,-2.77490234375,26.275634765625,124.481201171875,68.26019287109375,-0.4952392578125,-0.1522216796875,0.2550048828125,11,0,110
2,24,1,5553,290,-0.170654296875,1.007080078125,0.070556640625,-31.8603515625,13.00048828125,6.744384765625,1.172607421875,1.181396484375,-0.2939453125,11,0,198
2,24,3,5557,291,-0.512939453125,0.921875,0.047607421875,5.7525634765625,-2.5634765625,-0.60272216796875,-0.350341796875,-0.2108154296875,-0.003173828125,11,0,202
2,24,1,5558,291,-0.170654296875,1.007080078125,0.070556640625,-31.8603515625,13.00048828125,6.744384765625,1.172607421875,1.181396484375,-0.2939453125,11,0,207
2,24,2,5559,291,2.975341796875,3.052490234375,-2.77490234375,26.275634765625,124.481201171875,68.26019287109375,-0.4952392578125,-0.1522216796875,0.2550048828125,11,0,103
2,24,3,5562,292,-0.502685546875,0.97998046875,0.038818359375,-0.457763671875,-7.53021240234375,-2.2125244140625,-0.34619140625,-0.2093505859375,-0.0113525390625,11,0,52
2,24,1,5563,292,-0.170654296875,1.007080078125,0.070556640625,-31.8603515625,13.00048828125,6.744384765625,1.172607421875,1.181396484375,-0.2939453125,11,0,170
2,24,2,5564,292,2.09130859375,-0.66357421875,0.675537109375,-112.77008056640625,-125.91552734375,-169.43359375,-0.473388671875,-0.1744384765625,0.2464599609375,11,0,201
2,24,3,5568,293,-0.502685546875,0.97998046875,0.038818359375,-0.457763671875,-7.53021240234375,-2.2125244140625,-0.34619140625,-0.2093505859375,-0.0113525390625,11,0,84
2,24,1,5569,293,-0.074462890625,0.806396484375,0.194580078125,-36.50665283203125,23.64349365234375,5.2642822265625,1.1688232421875,1.1829833984375,-0.2940673828125,11,0,73
2,24,2,5570,293,2.09130859375,-0.66357421875,0.675537109375,-112.77008056640625,-125.91552734375,-169.43359375,-0.473388671875,-0.1744384765625,0.2464599609375,11,0,79
2,24,1,5575,294,-0.074462890625,0.806396484375,0.194580078125,-36.50665283203125,23.64349365234375,5.2642822265625,1.1688232421875,1.1829833984375,-0.2940673828125,11,0,182
2,24,2,5576,294,2.09130859375,-0.66357421875,0.675537109375,-112.77008056640625,-125.91552734375,-169.43359375,-0.473388671875,-0.1744384765625,0.2464599609375,11,0,157
2,24,3,5577,294,-0.38134765625,1.05322265625,0.027099609375,-3.2501220703125,-3.34930419921875,-1.9989013671875,-0.3463134765625,-0.2080078125,-0.0086669921875,11,0,235
2,24,1,5580,295,-0.074462890625,0.806396484375,0.194580078125,-36.50665283203125,23.64349365234375,5.2642822265625,1.1688232421875,1.1829833984375,-0.2940673828125,11,0,146
2,24,2,5581,295,-1.32666015625,0.516845703125,-0.820556640625,118.15643310546875,65.98663330078125,-71.9146728515625,-0.4676513671875,-0.158935546875,0.254638671875,11,0,157
2,24,3,5582,295,-0.38134765625,1.05322265625,0.027099609375,-3.2501220703125,-3.34930419921875,-1.9989013671875,-0.3463134765625,-0.2080078125,-0.0086669921875,11,0,226
2,24,2,5586,296,-1.32666015625,0.516845703125,-0.820556640625,118.15643310546875,65.98663330078125,-71.9146728515625,-0.4676513671875,-0.158935546875,0.254638671875,11,0,45
2,24,1,5587,296,0.012451171875,0.820556640625,0.3466796875,-6.9427490234375,30.31158447265625,2.96783447265625,1.17138671875,1.176513671875,-0.3052978515625,11,0,216
2,24,3,5588,296,-0.38134765625,1.05322265625,0.027099609375,-3.2501220703125,-3.34930419921875,-1.9989013671875,-0.3463134765625,-0.2080078125,-0.0086669921875,11,0,14
2,24,2,5592,297,-1.32666015625,0.516845703125,-0.820556640625,118.15643310546875,65.98663330078125,-71.9146728515625,-0.4676513671875,-0.158935546875,0.254638671875,11,0,179
2,24,1,5593,297,0.012451171875,0.820556640625,0.3466796875,-6.9427490234375,30.31158447265625,2.96783447265625,1.17138671875,1.176513671875,-0.3052978515625,11,0,70
2,24,3,5599,297,-0.104248046875,1.211181640625,-0.0087890625,-1.96075439453125,15.4571533203125,5.42449951171875,-0.3486328125,-0.20703125,-0.012939453125,11,0,112
2,24,1,5602,298,-0.052978515625,0.990234375,0.281005859375,5.33294677734375,20.39337158203125,1.12152099609375,1.1676025390625,1.1788330078125,-0.3016357421875,11,0,180
2,24,3,5603,298,-0.104248046875,1.211181640625,-0.0087890625,-1.96075439453125,15.4571533203125,5.42449951171875,-0.3486328125,-0.20703125,-0.012939453125,11,0,131
2,24,2,5604,298,0.199462890625,0.83544921875,-0.4423828125,-44.2047119140625,-16.67022705078125,16.815185546875,-0.4666748046875,-0.15478515625,0.254150390625,11,0,55
2,24,2,5609,299,0.199462890625,0.83544921875,-0.4423828125,-44.2047119140625,-16.67022705078125,16.815185546875,-0.4666748046875,-0.15478515625,0.254150390625,11,0,134
2,24,1,5610,299,-0.052978515625,0.990234375,0.281005859375,5.33294677734375,20.39337158203125,1.12152099609375,1.1676025390625,1.1788330078125,-0.3016357421875,11,0,89
2,24,3,5615,299,-0.0771484375,1.455322265625,-0.013916015625,-4.1046142578125,26.1383056640625,8.331298828125,-0.3502197265625,-0.2115478515625,-0.0140380859375,11,0,111
2,24,3,5619,300,-0.0771484375,1.455322265625,-0.013916015625,-4.1046142578125,26.1383056640625,8.331298828125,-0.3502197265625,-0.2115478515625,-0.0140380859375,11,0,33
2,24,1,5620,300,-0.17236328125,1.11474609375,0.062744140625,1.01470947265625,12.27569580078125,-4.43267822265625,1.1739501953125,1.1761474609375,-0.300048828125,11,0,234
2,24,2,5621,300,0.583740234375,0.81298828125,-0.0224609375,-13.00048828125,0.2288818359375,27.38189697265625,-0.467529296875,-0.160888671875,0.2506103515625,11,0,101
2,24,3,5625,301,-0.43212890625,1.437255859375,0.0068359375,-11.19232177734375,26.3824462890625,2.8076171875,-0.345703125,-0.2064208984375,-0.0101318359375,11,0,226
2,24,2,5626,301,0.583740234375,0.81298828125,-0.0224609375,-13.00048828125,0.2288818359375,27.38189697265625,-0.467529296875,-0.160888671875,0.2506103515625,11,0,167
2,24,1,5627,301,-0.17236328125,1.11474609375,0.062744140625,1.01470947265625,12.27569580078125,-4.43267822265625,1.1739501953125,1.1761474609375,-0.300048828125,11,0,40
2,24,2,5630,302,0.24951171875,1.394287109375,0.005126953125,-11.077880859375,-2.93731689453125,7.0343017578125,-0.4693603515625,-0.1624755859375,0.220703125,11,0,96
2,24,1,5631,302,-0.17236328125,1.11474609375,0.062744140625,1.01470947265625,12.27569580078125,-4.43267822265625,1.1739501953125,1.1761474609375,-0.300048828125,11,0,164
2,24,3,5635,302,-0.43212890625,1.437255859375,0.0068359375,-11.19232177734375,26.3824462890625,2.8076171875,-0.345703125,-0.2064208984375,-0.0101318359375,11,0,24
2,24,3,5639,303,-0.43212890625,1.437255859375,0.0068359375,-11.19232177734375,26.3824462890625,2.8076171875,-0.345703125,-0.2064208984375,-0.0101318359375,11,0,216
2,24,2,5640,303,0.24951171875,1.394287109375,0.005126953125,-11.077880859375,-2.93731689453125,7.0343017578125,-0.4693603515625,-0.1624755859375,0.220703125,11,0,251
2,24,1,5641,303,-0.257568359375,1.03466796875,-0.0546875,-6.62994384765625,9.033203125,-10.4827880859375,1.172119140625,1.177001953125,-0.3031005859375,11,0,35
2,24,1,5645,304,-0.257568359375,1.03466796875,-0.0546875,-6.62994384765625,9.033203125,-10.4827880859375,1.172119140625,1.177001953125,-0.3031005859375,11,0,110
2,24,2,5646,304,0.2109375,0.8984375,0.19677734375,15.7928466796875,8.7738037109375,-0.52642822265625,-0.469970703125,-0.1715087890625,0.2447509765625,11,0,74
2,24,3,5648,304,-0.506103515625,1.38525390625,0.1806640625,-14.22119140625,7.54547119140625,16.19720458984375,-0.349365234375,-0.2108154296875,-0.020751953125,11,0,134
2,24,2,5652,305,0.2109375,0.8984375,0.19677734375,15.7928466796875,8.7738037109375,-0.52642822265625,-0.469970703125,-0.1715087890625,0.2447509765625,11,0,69
2,24,1,5653,305,-0.2490234375,0.900634765625,0.04296875,-5.85174560546875,4.608154296875,-6.7138671875,1.174072265625,1.1741943359375,-0.2977294921875,11,0,105
2,24,3,5703,306,-0.531005859375,1.083740234375,0.1103515625,-1.82342529296875,-27.89306640625,36.0107421875,-0.360107421875,-0.2081298828125,-0.0255126953125,11,0,201
2,24,1,5704,306,-0.205322265625,0.87939453125,0.16455078125,6.37054443359375,8.056640625,7.66754150390625,1.170654296875,1.1798095703125,-0.296630859375,11,0,239
2,24,2,5705,306,0.196044921875,0.9921875,0.016357421875,9.86480712890625,-5.462646484375,-1.953125,-0.470458984375,-0.1624755859375,0.2479248046875,11,0,202
2,24,2,5710,307,0.196044921875,0.9921875,0.016357421875,9.86480712890625,-5.462646484375,-1.953125,-0.470458984375,-0.1624755859375,0.2479248046875,11,0,195
2,24,1,5711,307,-0.336181640625,0.874755859375,0.08349609375,10.00213623046875,5.6304931640625,4.66156005859375,1.169677734375,1.1768798828125,-0.300537109375,11,0,71
2,24,3,5712,307,-0.531005859375,1.083740234375,0.1103515625,-1.82342529296875,-27.89306640625,36.0107421875,-0.360107421875,-0.2081298828125,-0.0255126953125,11,0,81
2,24,1,5716,308,-0.336181640625,0.874755859375,0.08349609375,10.00213623046875,5.6304931640625,4.66156005859375,1.169677734375,1.1768798828125,-0.300537109375,11,0,38
2,24,2,5717,308,0.205078125,0.976806640625,-0.087158203125,11.5509033203125,-3.9825439453125,0.58746337890625,-0.470458984375,-0.16015625,0.2530517578125,11,0,177
2,24,3,5718,308,-0.4912109375,0.9560546875,0.0419921875,1.8157958984375,-32.73773193359375,35.308837890625,-0.3643798828125,-0.203369140625,-0.0367431640625,11,0,246
2,24,1,5722,309,-0.3994140625,0.858642578125,0.023193359375,11.45172119140625,-0.80108642578125,-0.5035400390625,1.1695556640625,1.17919921875,-0.300048828125,11,0,24
2,24,2,5724,309,0.205078125,0.976806640625,-0.087158203125,11.5509033203125,-3.9825439453125,0.58746337890625,-0.470458984375,-0.16015625,0.2530517578125,11,0,230
2,24,3,5726,309,-0.4912109375,0.9560546875,0.0419921875,1.8157958984375,-32.73773193359375,35.308837890625,-0.3643798828125,-0.203369140625,-0.0367431640625,11,0,27
2,24,1,5729,310,-0.3994140625,0.858642578125,0.023193359375,11.45172119140625,-0.80108642578125,-0.5035400390625,1.1695556640625,1.17919921875,-0.300048828125,11,0,196
2,24,3,5730,310,-0.447265625,0.820556640625,-0.00244140625,4.89044189453125,-36.0260009765625,32.501220703125,-0.368896484375,-0.22119140625,-0.03515625,11,0,191
2,24,2,5731,310,0.205078125,0.976806640625,-0.087158203125,11.5509033203125,-3.9825439453125,0.58746337890625,-0.470458984375,-0.16015625,0.2530517578125,11,0,220
2,24,1,5735,311,-0.3994140625,0.858642578125,0.023193359375,11.45172119140625,-0.80108642578125,-0.5035400390625,1.1695556640625,1.17919921875,-0.300048828125,11,0,119
2,24,3,5736,311,-0.447265625,0.820556640625,-0.00244140625,4.89044189453125,-36.0260009765625,32.501220703125,-0.368896484375,-0.22119140625,-0.03515625,11,0,33
2,24,2,5737,311,0.22021484375,0.9892578125,-0.075439453125,10.30731201171875,-8.01849365234375,0.9613037109375,-0.47216796875,-0.15869140625,0.245849609375,11,0,201
2,24,1,5740,312,-0.353515625,0.902587890625,0.0458984375,14.83917236328125,-6.34765625,-1.0528564453125,1.1654052734375,1.180419921875,-0.298095703125,11,0,247
2,24,2,5741,312,0.22021484375,0.9892578125,-0.075439453125,10.30731201171875,-8.01849365234375,0.9613037109375,-0.47216796875,-0.15869140625,0.245849609375,11,0,234
2,24,3,5742,312,-0.447265625,0.820556640625,-0.00244140625,4.89044189453125,-36.0260009765625,32.501220703125,-0.368896484375,-0.22119140625,-0.03515625,11,0,113
2,24,1,5747,313,-0.353515625,0.902587890625,0.0458984375,14.83917236328125,-6.34765625,-1.0528564453125,1.1654052734375,1.180419921875,-0.298095703125,11,0,164
2,24,2,5748,313,0.22021484375,0.9892578125,-0.075439453125,10.30731201171875,-8.01849365234375,0.9613037109375,-0.47216796875,-0.15869140625,0.245849609375,11,0,44
2,24,3,5750,313,-0.41845703125,0.69775390625,0.00634765625,5.13458251953125,-32.04345703125,28.26690673828125,-0.3760986328125,-0.216064453125,-0.039306640625,11,0,201
2,24,1,5753,314,-0.353515625,0.902587890625,0.0458984375,14.83917236328125,-6.34765625,-1.0528564453125,1.1654052734375,1.180419921875,-0.298095703125,11,0,118
2,24,3,5754,314,-0.41845703125,0.69775390625,0.00634765625,5.13458251953125,-32.04345703125,28.26690673828125,-0.3760986328125,-0.216064453125,-0.039306640625,11,0,142
2,24,2,5755,314,0.22607421875,0.99267578125,-0.053466796875,8.880615234375,-10.50567626953125,0.77056884765625,-0.4783935546875,-0.1614990234375,0.2442626953125,11,0,33
2,24,3,5760,315,-0.4140625,0.57763671875,0.01123046875,4.69207763671875,-26.75628662109375,24.261474609375,-0.376220703125,-0.203125,-0.0428466796875,11,0,17
2,24,1,5761,315,-0.2861328125,0.947998046875,0.0751953125,13.87786865234375,-11.3067626953125,4.3182373046875,1.1712646484375,1.1796875,-0.2972412109375,11,0,65
2,24,2,5762,315,0.22607421875,0.99267578125,-0.053466796875,8.880615234375,-10.50567626953125,0.77056884765625,-0.4783935546875,-0.1614990234375,0.2442626953125,11,0,28
2,24,3,5766,316,-0.4140625,0.57763671875,0.01123046875,4.69207763671875,-26.75628662109375,24.261474609375,-0.376220703125,-0.203125,-0.0428466796875,11,0,118
2,24,2,5767,316,0.22607421875,0.99267578125,-0.053466796875,8.880615234375,-10.50567626953125,0.77056884765625,-0.4783935546875,-0.1614990234375,0.2442626953125,11,0,178
2,24,1,5768,316,-0.2861328125,0.947998046875,0.0751953125,13.87786865234375,-11.3067626953125,4.3182373046875,1.1712646484375,1.1796875,-0.2972412109375,11,0,194
2,24,2,5771,317,0.232177734375,0.991455078125,-0.048828125,7.56072998046875,-13.5498046875,-0.45013427734375,-0.468994140625,-0.1636962890625,0.251953125,11,0,104
2,24,1,5772,317,-0.2861328125,0.947998046875,0.0751953125,13.87786865234375,-11.3067626953125,4.3182373046875,1.1712646484375,1.1796875,-0.2972412109375,11,0,2
2,24,3,5773,317,-0.4140625,0.57763671875,0.01123046875,4.69207763671875,-26.75628662109375,24.261474609375,-0.376220703125,-0.203125,-0.0428466796875,11,0,82
2,24,3,5779,318,-0.379638671875,0.484375,0.023681640625,4.06646728515625,-24.505615234375,21.81243896484375,-0.3834228515625,-0.2037353515625,-0.044189453125,11,0,159
2,24,2,5780,318,0.232177734375,0.991455078125,-0.048828125,7.56072998046875,-13.5498046875,-0.45013427734375,-0.468994140625,-0.1636962890625,0.251953125,11,0,119
2,24,1,5781,318,-0.26318359375,0.966796875,0.061767578125,13.916015625,-12.41302490234375,7.19451904296875,1.1658935546875,1.178466796875,-0.2960205078125,11,0,234
2,24,2,5784,319,0.210693359375,0.993896484375,-0.044677734375,9.89532470703125,-13.5040283203125,-1.861572265625,-0.469482421875,-0.1729736328125,0.2630615234375,11,0,214
2,24,1,5785,319,-0.26318359375,0.966796875,0.061767578125,13.916015625,-12.41302490234375,7.19451904296875,1.1658935546875,1.178466796875,-0.2960205078125,11,0,225
2,24,3,5786,319,-0.379638671875,0.484375,0.023681640625,4.06646728515625,-24.505615234375,21.81243896484375,-0.3834228515625,-0.2037353515625,-0.044189453125,11,0,200
2,24,2,5790,320,0.210693359375,0.993896484375,-0.044677734375,9.89532470703125,-13.5040283203125,-1.861572265625,-0.469482421875,-0.1729736328125,0.2630615234375,11,0,139
2,24,3,5791,320,-0.379638671875,0.484375,0.023681640625,4.06646728515625,-24.505615234375,21.81243896484375,-0.3834228515625,-0.2037353515625,-0.044189453125,11,0,92
2,24,1,5792,320,-0.30126953125,0.982177734375,0.034912109375,12.5885009765625,-8.50677490234375,7.83538818359375,1.167724609375,1.1785888671875,-0.2904052734375,11,0,127
2,24,3,5795,321,-0.36279296875,0.439697265625,0.0068359375,3.95965576171875,-19.378662109375,15.472412109375,-0.3814697265625,-0.201416015625,-0.0389404296875,11,0,196
2,24,1,5796,321,-0.30126953125,0.982177734375,0.034912109375,12.5885009765625,-8.50677490234375,7.83538818359375,1.167724609375,1.1785888671875,-0.2904052734375,11,0,191
2,24,2,5797,321,0.210693359375,0.993896484375,-0.044677734375,9.89532470703125,-13.5040283203125,-1.861572265625,-0.469482421875,-0.1729736328125,0.2630615234375,11,0,27
2,24,2,5802,322,0.21435546875,0.988037109375,-0.076171875,9.674072265625,-10.0250244140625,-1.373291015625,-0.472900390625,-0.17138671875,0.2607421875,11,0,101
2,24,3,5803,322,-0.36279296875,0.439697265625,0.0068359375,3.95965576171875,-19.378662109375,15.472412109375,-0.3814697265625,-0.201416015625,-0.0389404296875,11,0,101
2,24,1,5804,322,-0.30126953125,0.982177734375,0.034912109375,12.5885009765625,-8.50677490234375,7.83538818359375,1.167724609375,1.1785888671875,-0.2904052734375,11,0,30
2,24,2,5807,323,0.21435546875,0.988037109375,-0.076171875,9.674072265625,-10.0250244140625,-1.373291015625,-0.472900390625,-0.17138671875,0.2607421875,11,0,31
2,24,1,5808,323,-0.316650390625,1.008056640625,0.053955078125,9.0179443359375,0.640869140625,4.7454833984375,1.1695556640625,1.1773681640625,-0.2979736328125,11,0,11
2,24,3,5810,323,-0.36279296875,0.439697265625,0.0068359375,3.95965576171875,-19.378662109375,15.472412109375,-0.3814697265625,-0.201416015625,-0.0389404296875,11,0,163
2,24,1,5814,324,-0.316650390625,1.008056640625,0.053955078125,9.0179443359375,0.640869140625,4.7454833984375,1.1695556640625,1.1773681640625,-0.2979736328125,11,0,108
2,24,2,5815,324,0.21435546875,0.988037109375,-0.076171875,9.674072265625,-10.0250244140625,-1.373291015625,-0.472900390625,-0.17138671875,0.2607421875,11,0,183
2,24,3,5816,324,-0.33251953125,0.390625,0.006103515625,3.448486328125,-16.204833984375,9.307861328125,-0.385498046875,-0.2041015625,-0.049072265625,11,0,152
2,24,1,5820,325,-0.316650390625,1.008056640625,0.053955078125,9.0179443359375,0.640869140625,4.7454833984375,1.1695556640625,1.1773681640625,-0.2979736328125,11,0,242
2,24,2,5821,325,0.22607421875,0.9833984375,-0.126953125,8.44573974609375,-8.01849365234375,-1.739501953125,-0.477294921875,-0.15966796875,0.2620849609375,11,0,50
2,24,3,5822,325,-0.33251953125,0.390625,0.006103515625,3.448486328125,-16.204833984375,9.307861328125,-0.385498046875,-0.2041015625,-0.049072265625,11,0,43
2,24,2,5825,326,0.22607421875,0.9833984375,-0.126953125,8.44573974609375,-8.01849365234375,-1.739501953125,-0.477294921875,-0.15966796875,0.2620849609375,11,0,139
2,24,3,5826,326,-0.33251953125,0.390625,0.006103515625,3.448486328125,-16.204833984375,9.307861328125,-0.385498046875,-0.2041015625,-0.049072265625,11,0,146
2,24,1,5828,326,-0.314453125,0.998046875,0.080810546875,5.88226318359375,4.0435791015625,1.67083740234375,1.1702880859375,1.1854248046875,-0.2999267578125,11,0,218
2,24,2,5831,327,0.22607421875,0.9833984375,-0.126953125,8.44573974609375,-8.01849365234375,-1.739501953125,-0.477294921875,-0.15966796875,0.2620849609375,11,0,56
2,24,3,5832,327,-0.3486328125,0.3994140625,-0.005859375,5.05828857421875,-12.9241943359375,1.190185546875,-0.385498046875,-0.2086181640625,-0.052490234375,11,0,96
2,24,1,5833,327,-0.314453125,0.998046875,0.080810546875,5.88226318359375,4.0435791015625,1.67083740234375,1.1702880859375,1.1854248046875,-0.2999267578125,11,0,107
2,24,3,5836,328,-0.3486328125,0.3994140625,-0.005859375,5.05828857421875,-12.9241943359375,1.190185546875,-0.385498046875,-0.2086181640625,-0.052490234375,11,0,67
2,24,2,5837,328,0.199951171875,0.9814453125,-0.119873046875,5.035400390625,-5.79833984375,-1.373291015625,-0.4736328125,-0.1630859375,0.25146484375,11,0,132
2,24,1,5838,328,-0.314453125,0.998046875,0.080810546875,5.88226318359375,4.0435791015625,1.67083740234375,1.1702880859375,1.1854248046875,-0.2999267578125,11,0,129
2,24,2,5841,329,0.199951171875,0.9814453125,-0.119873046875,5.035400390625,-5.79833984375,-1.373291015625,-0.4736328125,-0.1630859375,0.25146484375,11,0,30
2,24,3,5842,329,-0.3486328125,0.3994140625,-0.005859375,5.05828857421875,-12.9241943359375,1.190185546875,-0.385498046875,-0.2086181640625,-0.052490234375,11,0,170
2,24,1,5843,329,-0.314453125,0.998046875,0.080810546875,5.88226318359375,4.0435791015625,1.67083740234375,1.1702880859375,1.1854248046875,-0.2999267578125,11,0,161
2,24,3,5846,330,-0.375,0.353271484375,-0.00048828125,3.12042236328125,-7.54547119140625,-2.3956298828125,-0.3885498046875,-0.2196044921875,-0.0404052734375,11,0,106
2,24,1,5847,330,-0.315185546875,0.97998046875,0.076171875,6.43157958984375,5.02777099609375,-0.4425048828125,1.1693115234375,1.181396484375,-0.2987060546875,11,0,164
2,24,2,5849,330,0.199951171875,0.9814453125,-0.119873046875,5.035400390625,-5.79833984375,-1.373291015625,-0.4736328125,-0.1630859375,0.25146484375,11,0,191
2,24,3,5853,331,-0.375,0.353271484375,-0.00048828125,3.12042236328125,-7.54547119140625,-2.3956298828125,-0.3885498046875,-0.2196044921875,-0.0404052734375,11,0,78
2,24,1,5854,331,-0.315185546875,0.97998046875,0.076171875,6.43157958984375,5.02777099609375,-0.4425048828125,1.1693115234375,1.181396484375,-0.2987060546875,11,0,243
2,24,2,5855,331,0.199951171875,0.98974609375,-0.0634765625,2.9449462890625,-5.8441162109375,-0.63323974609375,-0.471923828125,-0.1712646484375,0.2550048828125,11,0,179
2,24,3,5859,332,-0.375,0.353271484375,-0.00048828125,3.12042236328125,-7.54547119140625,-2.3956298828125,-0.3885498046875,-0.2196044921875,-0.0404052734375,11,0,86
2,24,2,5860,332,0.199951171875,0.98974609375,-0.0634765625,2.9449462890625,-5.8441162109375,-0.63323974609375,-0.471923828125,-0.1712646484375,0.2550048828125,11,0,247
2,24,1,5862,332,-0.30029296875,0.95263671875,0.0673828125,6.59942626953125,4.608154296875,-3.0670166015625,1.1649169921875,1.1658935546875,-0.29736328125,11,0,165
2,24,1,5865,333,-0.30029296875,0.95263671875,0.0673828125,6.59942626953125,4.608154296875,-3.0670166015625,1.1649169921875,1.1658935546875,-0.29736328125,11,0,103
2,24,3,5866,333,-0.336181640625,0.36962890625,-0.015625,4.02069091796875,-5.50079345703125,-3.82232666015625,-0.3876953125,-0.2032470703125,-0.04736328125,11,0,96
2,24,2,5867,333,0.199951171875,0.98974609375,-0.0634765625,2.9449462890625,-5.8441162109375,-0.63323974609375,-0.471923828125,-0.1712646484375,0.2550048828125,11,0,53
2,24,1,5871,334,-0.30029296875,0.95263671875,0.0673828125,6.59942626953125,4.608154296875,-3.0670166015625,1.1649169921875,1.1658935546875,-0.29736328125,11,0,152
2,24,2,5872,334,0.2294921875,0.98779296875,-0.08251953125,2.92205810546875,-5.401611328125,-0.67138671875,-0.47412109375,-0.17041015625,0.254150390625,11,0,74
2,24,3,5873,334,-0.336181640625,0.36962890625,-0.015625,4.02069091796875,-5.50079345703125,-3.82232666015625,-0.3876953125,-0.2032470703125,-0.04736328125,11,0,153
2,24,1,5876,335,-0.30029296875,0.95263671875,0.0673828125,6.59942626953125,4.608154296875,-3.0670166015625,1.1649169921875,1.1658935546875,-0.29736328125,11,0,45
